accx,accy,accz,gyrx,gyry,gyrz,anglex,angley,anglez,magx,magy,magz
-0.1030000000,0.0240000000,-0.9990000000,-0.0017453293,0.0000000000,-0.0017453293,0.1031489588,3.1166344453,2.3160519174,-423,208,236
-0.1030000000,0.0240000000,-0.9990000000,0.0000000000,-0.0017453293,-0.0017453293,0.1031489588,3.1166344453,2.3160519174,-416,211,235
-0.1040000000,0.0240000000,-0.9980000000,0.0000000000,0.0000000000,0.0000000000,0.1031489588,3.1166344453,2.3160519174,-418,210,235
-0.1040000000,0.0230000000,-0.9990000000,0.0017453293,0.0034906585,0.0000000000,0.1031489588,3.1166344453,2.3160519174,-419,209,238
-0.1040000000,0.0230000000,-0.9990000000,0.0000000000,0.0017453293,0.0017453293,0.1031489588,3.1166344453,2.3160519174,-420,213,235
-0.1040000000,0.0230000000,-0.9990000000,0.0000000000,0.0000000000,0.0017453293,0.1031489588,3.1166344453,2.3160519174,-424,211,235
-0.1040000000,0.0240000000,-0.9980000000,0.0000000000,0.0000000000,0.0000000000,0.1031489588,3.1166344453,2.3160519174,-420,212,235
-0.1040000000,0.0240000000,-0.9990000000,0.0000000000,0.0000000000,0.0000000000,0.1031489588,3.1166344453,2.3160519174,-422,213,234
-0.1040000000,0.0240000000,-0.9990000000,0.0000000000,0.0000000000,0.0000000000,0.1031489588,3.1166344453,2.3160519174,-418,211,239
-0.1030000000,0.0240000000,-0.9990000000,0.0000000000,0.0000000000,0.0000000000,0.1031489588,3.1166344453,2.3160519174,-419,208,239
-0.1030000000,0.0240000000,-0.9990000000,0.0000000000,-0.0017453293,0.0000000000,0.1031489588,3.1168089782,2.3160519174,-415,209,241
-0.1040000000,0.0240000000,-0.9990000000,0.0000000000,0.0000000000,0.0000000000,0.1031489588,3.1168089782,2.3160519174,-423,213,242
-0.1040000000,0.0240000000,-0.9980000000,0.0000000000,0.0000000000,0.0000000000,0.1031489588,3.1168089782,2.3160519174,-421,211,243
-0.1030000000,0.0230000000,-0.9980000000,0.0000000000,0.0000000000,0.0000000000,0.1031489588,3.1168089782,2.3160519174,-421,208,237
-0.1040000000,0.0240000000,-0.9980000000,0.0000000000,0.0000000000,0.0000000000,0.1031489588,3.1168089782,2.3160519174,-421,206,236
-0.1040000000,0.0240000000,-0.9990000000,0.0000000000,0.0000000000,0.0000000000,0.1031489588,3.1168089782,2.3160519174,-419,209,236
-0.1030000000,0.0250000000,-1.0000000000,0.0017453293,0.0017453293,0.0000000000,0.1031489588,3.1168089782,2.3160519174,-420,210,234
-0.1030000000,0.0250000000,-1.0000000000,0.0000000000,0.0000000000,0.0000000000,0.1031489588,3.1168089782,2.3160519174,-418,209,237
-0.1030000000,0.0250000000,-1.0000000000,0.0000000000,-0.0017453293,0.0000000000,0.1031489588,3.1168089782,2.3160519174,-419,210,237
-0.1030000000,0.0250000000,-1.0000000000,0.0000000000,0.0000000000,0.0000000000,0.1031489588,3.1168089782,2.3160519174,-419,211,237
-0.1030000000,0.0250000000,-1.0000000000,0.0000000000,0.0000000000,-0.0017453293,0.1031489588,3.1168089782,2.3160519174,-422,211,237
-0.1030000000,0.0250000000,-0.9990000000,0.0017453293,0.0017453293,0.0000000000,0.1031489588,3.1168089782,2.3160519174,-424,211,237
-0.1030000000,0.0250000000,-0.9990000000,0.0017453293,0.0000000000,-0.0034906585,0.1031489588,3.1166344453,2.3160519174,-419,212,235
-0.1030000000,0.0240000000,-0.9990000000,0.0000000000,0.0000000000,0.0000000000,0.1031489588,3.1166344453,2.3160519174,-420,209,236
-0.1030000000,0.0240000000,-0.9990000000,0.0000000000,0.0034906585,0.0000000000,0.1031489588,3.1166344453,2.3160519174,-417,212,240
-0.1040000000,0.0240000000,-0.9990000000,0.0000000000,-0.0034906585,0.0017453293,0.1031489588,3.1166344453,2.3160519174,-419,208,237
-0.1030000000,0.0250000000,-1.0000000000,0.0000000000,0.0000000000,-0.0017453293,0.1031489588,3.1168089782,2.3160519174,-421,209,238
-0.1030000000,0.0250000000,-0.9990000000,0.0000000000,0.0000000000,0.0000000000,0.1031489588,3.1168089782,2.3160519174,-422,211,239
-0.1020000000,0.0250000000,-0.9990000000,0.0000000000,0.0000000000,0.0000000000,0.1031489588,3.1168089782,2.3160519174,-421,212,236
-0.1020000000,0.0250000000,-0.9990000000,0.0000000000,0.0000000000,0.0000000000,0.1031489588,3.1168089782,2.3160519174,-423,213,238
-0.1030000000,0.0240000000,-1.0000000000,0.0000000000,-0.0017453293,-0.0017453293,0.1031489588,3.1166344453,2.3160519174,-422,212,238
-0.1030000000,0.0240000000,-1.0000000000,0.0017453293,0.0000000000,0.0000000000,0.1031489588,3.1166344453,2.3160519174,-423,211,236
-0.1040000000,0.0250000000,-1.0000000000,0.0000000000,0.0000000000,0.0017453293,0.1031489588,3.1166344453,2.3160519174,-421,211,241
-0.1040000000,0.0250000000,-0.9990000000,0.0000000000,0.0000000000,0.0000000000,0.1031489588,3.1166344453,2.3160519174,-420,208,237
-0.1030000000,0.0250000000,-0.9990000000,0.0000000000,0.0000000000,0.0000000000,0.1031489588,3.1166344453,2.3160519174,-425,213,240
-0.1020000000,0.0250000000,-0.9990000000,0.0000000000,0.0017453293,0.0000000000,0.1031489588,3.1166344453,2.3160519174,-419,213,240
-0.1020000000,0.0240000000,-0.9990000000,0.0000000000,0.0017453293,0.0000000000,0.1031489588,3.1166344453,2.3160519174,-422,209,243
-0.1020000000,0.0240000000,-1.0000000000,0.0000000000,0.0000000000,0.0000000000,0.1031489588,3.1166344453,2.3160519174,-419,212,237
-0.1020000000,0.0240000000,-1.0000000000,0.0000000000,-0.0017453293,0.0000000000,0.1031489588,3.1166344453,2.3160519174,-418,210,238
-0.1030000000,0.0240000000,-1.0000000000,0.0000000000,0.0000000000,0.0000000000,0.1031489588,3.1166344453,2.3160519174,-421,208,236
-0.1030000000,0.0240000000,-0.9990000000,0.0000000000,-0.0034906585,-0.0017453293,0.1031489588,3.1166344453,2.3160519174,-423,212,237
-0.1040000000,0.0240000000,-0.9990000000,0.0000000000,0.0000000000,0.0000000000,0.1031489588,3.1166344453,2.3160519174,-423,212,232
-0.1040000000,0.0240000000,-0.9980000000,0.0000000000,0.0000000000,0.0000000000,0.1031489588,3.1166344453,2.3160519174,-424,210,236
-0.1030000000,0.0240000000,-0.9980000000,0.0000000000,0.0000000000,0.0017453293,0.1031489588,3.1166344453,2.3160519174,-421,211,237
-0.1030000000,0.0240000000,-0.9980000000,-0.0017453293,0.0000000000,0.0000000000,0.1031489588,3.1166344453,2.3160519174,-426,209,238
-0.1030000000,0.0240000000,-0.9990000000,-0.0017453293,-0.0017453293,0.0000000000,0.1031489588,3.1166344453,2.3160519174,-420,208,237
-0.1030000000,0.0240000000,-1.0000000000,0.0000000000,0.0034906585,-0.0017453293,0.1031489588,3.1166344453,2.3160519174,-424,210,234
-0.1030000000,0.0240000000,-1.0000000000,0.0000000000,0.0000000000,0.0000000000,0.1031489588,3.1166344453,2.3160519174,-421,210,237
-0.1030000000,0.0240000000,-1.0000000000,-0.0017453293,0.0000000000,0.0000000000,0.1031489588,3.1166344453,2.3160519174,-420,208,238
-0.1030000000,0.0240000000,-0.9990000000,0.0000000000,0.0000000000,0.0034906585,0.1031489588,3.1166344453,2.3160519174,-419,211,237
-0.1030000000,0.0240000000,-0.9990000000,0.0000000000,0.0034906585,0.0000000000,0.1031489588,3.1168089782,2.3160519174,-424,211,238
-0.1030000000,0.0250000000,-0.9990000000,0.0000000000,0.0000000000,0.0000000000,0.1031489588,3.1168089782,2.3160519174,-424,210,238
-0.1020000000,0.0250000000,-0.9990000000,0.0000000000,0.0000000000,-0.0017453293,0.1031489588,3.1168089782,2.3160519174,-419,213,234
-0.1020000000,0.0250000000,-1.0000000000,-0.0017453293,-0.0034906585,0.0000000000,0.1031489588,3.1168089782,2.3160519174,-420,210,237
-0.1030000000,0.0240000000,-1.0000000000,-0.0017453293,-0.0017453293,0.0000000000,0.1031489588,3.1166344453,2.3160519174,-420,206,232
-0.1030000000,0.0240000000,-1.0010000000,0.0000000000,0.0000000000,0.0000000000,0.1031489588,3.1166344453,2.3160519174,-420,210,236
-0.1030000000,0.0240000000,-1.0000000000,0.0000000000,0.0000000000,0.0000000000,0.1031489588,3.1166344453,2.3160519174,-419,211,236
-0.1030000000,0.0240000000,-0.9990000000,0.0000000000,0.0000000000,0.0000000000,0.1031489588,3.1166344453,2.3160519174,-423,210,234
-0.1040000000,0.0240000000,-0.9980000000,0.0000000000,0.0017453293,0.0000000000,0.1031489588,3.1168089782,2.3160519174,-419,208,235
-0.1030000000,0.0250000000,-0.9990000000,-0.0017453293,-0.0034906585,0.0000000000,0.1031489588,3.1168089782,2.3160519174,-421,209,234
-0.1030000000,0.0250000000,-0.9990000000,0.0000000000,0.0000000000,0.0000000000,0.1031489588,3.1168089782,2.3160519174,-421,212,235
-0.1030000000,0.0250000000,-0.9990000000,0.0017453293,0.0052359878,0.0000000000,0.1031489588,3.1168089782,2.3160519174,-421,214,234
-0.1030000000,0.0240000000,-1.0000000000,0.0000000000,0.0000000000,0.0017453293,0.1031489588,3.1166344453,2.3160519174,-421,215,226
-0.1020000000,0.0230000000,-0.9990000000,0.0000000000,0.0000000000,0.0000000000,0.1031489588,3.1166344453,2.3160519174,-423,210,236
-0.1020000000,0.0230000000,-0.9990000000,0.0000000000,0.0017453293,0.0000000000,0.1031489588,3.1166344453,2.3160519174,-420,211,235
-0.1020000000,0.0230000000,-0.9990000000,0.0017453293,0.0000000000,-0.0017453293,0.1031489588,3.1166344453,2.3160519174,-427,214,232
-0.1020000000,0.0230000000,-0.9990000000,0.0017453293,0.0000000000,0.0000000000,0.1031489588,3.1168089782,2.3160519174,-419,212,235
-0.1020000000,0.0240000000,-1.0000000000,0.0000000000,0.0000000000,0.0000000000,0.1031489588,3.1168089782,2.3160519174,-424,211,235
-0.1020000000,0.0240000000,-0.9990000000,0.0000000000,0.0017453293,0.0000000000,0.1031489588,3.1168089782,2.3160519174,-421,210,236
-0.1030000000,0.0240000000,-1.0000000000,0.0000000000,0.0017453293,-0.0017453293,0.1031489588,3.1168089782,2.3160519174,-420,215,237
-0.1030000000,0.0250000000,-1.0000000000,-0.0017453293,0.0000000000,0.0000000000,0.1031489588,3.1168089782,2.3160519174,-418,211,235
-0.1030000000,0.0250000000,-1.0000000000,-0.0034906585,0.0000000000,0.0000000000,0.1031489588,3.1168089782,2.3160519174,-425,211,234
-0.1030000000,0.0250000000,-0.9990000000,0.0000000000,0.0000000000,0.0000000000,0.1031489588,3.1168089782,2.3160519174,-419,211,235
-0.1040000000,0.0250000000,-0.9990000000,0.0000000000,-0.0034906585,-0.0017453293,0.1031489588,3.1168089782,2.3160519174,-419,211,238
-0.1040000000,0.0260000000,-0.9990000000,0.0000000000,0.0000000000,0.0000000000,0.1031489588,3.1168089782,2.3160519174,-419,211,238
-0.1030000000,0.0250000000,-1.0000000000,-0.0017453293,0.0000000000,-0.0034906585,0.1031489588,3.1168089782,2.3160519174,-421,209,240
-0.1030000000,0.0240000000,-1.0000000000,0.0000000000,-0.0034906585,0.0000000000,0.1031489588,3.1168089782,2.3160519174,-423,208,237
-0.1030000000,0.0240000000,-0.9990000000,0.0017453293,0.0000000000,0.0000000000,0.1031489588,3.1168089782,2.3160519174,-424,209,238
-0.1030000000,0.0240000000,-0.9990000000,0.0000000000,0.0000000000,0.0000000000,0.1031489588,3.1168089782,2.3160519174,-420,210,235
-0.1040000000,0.0250000000,-0.9990000000,0.0000000000,0.0000000000,0.0000000000,0.1031489588,3.1168089782,2.3160519174,-424,215,241
-0.1040000000,0.0250000000,-0.9990000000,0.0000000000,0.0000000000,-0.0017453293,0.1031489588,3.1168089782,2.3160519174,-420,208,234
-0.1030000000,0.0250000000,-0.9990000000,0.0000000000,-0.0017453293,0.0000000000,0.1031489588,3.1168089782,2.3160519174,-421,212,237
-0.1030000000,0.0250000000,-1.0000000000,-0.0017453293,0.0017453293,0.0000000000,0.1031489588,3.1166344453,2.3160519174,-421,212,237
-0.1030000000,0.0250000000,-1.0000000000,0.0000000000,0.0000000000,0.0000000000,0.1031489588,3.1166344453,2.3160519174,-420,209,235
-0.1030000000,0.0250000000,-1.0010000000,0.0000000000,0.0000000000,-0.0017453293,0.1031489588,3.1166344453,2.3160519174,-421,212,234
-0.1030000000,0.0250000000,-1.0010000000,0.0000000000,0.0000000000,0.0000000000,0.1031489588,3.1166344453,2.3160519174,-417,210,234
-0.1030000000,0.0250000000,-1.0000000000,-0.0017453293,-0.0017453293,-0.0034906585,0.1031489588,3.1166344453,2.3160519174,-417,210,234
-0.1040000000,0.0250000000,-1.0000000000,0.0000000000,0.0000000000,0.0017453293,0.1031489588,3.1166344453,2.3160519174,-417,210,238
-0.1040000000,0.0260000000,-1.0000000000,0.0000000000,0.0000000000,0.0000000000,0.1031489588,3.1166344453,2.3160519174,-421,213,237
-0.1030000000,0.0260000000,-1.0000000000,0.0000000000,0.0034906585,0.0000000000,0.1031489588,3.1166344453,2.3160519174,-417,212,235
-0.1030000000,0.0260000000,-1.0000000000,-0.0017453293,-0.0034906585,0.0000000000,0.1031489588,3.1166344453,2.3160519174,-417,212,235
-0.1030000000,0.0250000000,-1.0000000000,0.0000000000,0.0000000000,0.0000000000,0.1031489588,3.1166344453,2.3160519174,-423,216,237
-0.1030000000,0.0250000000,-1.0000000000,0.0000000000,0.0000000000,0.0000000000,0.1031489588,3.1166344453,2.3160519174,-421,213,237
-0.1030000000,0.0240000000,-0.9990000000,0.0017453293,0.0017453293,0.0000000000,0.1031489588,3.1166344453,2.3160519174,-419,215,232
-0.1030000000,0.0240000000,-0.9990000000,0.0000000000,0.0000000000,0.0017453293,0.1031489588,3.1166344453,2.3160519174,-419,215,232
-0.1030000000,0.0240000000,-0.9980000000,0.0017453293,0.0000000000,-0.0017453293,0.1031489588,3.1166344453,2.3160519174,-426,212,233
-0.1030000000,0.0240000000,-0.9980000000,0.0000000000,-0.0034906585,-0.0017453293,0.1031489588,3.1166344453,2.3160519174,-421,212,233
-0.1030000000,0.0240000000,-0.9990000000,0.0000000000,-0.0017453293,0.0000000000,0.1031489588,3.1166344453,2.3160519174,-421,212,234
-0.1030000000,0.0240000000,-1.0000000000,0.0000000000,0.0000000000,0.0000000000,0.1031489588,3.1166344453,2.3160519174,-421,211,234
-0.1030000000,0.0240000000,-1.0000000000,0.0000000000,0.0000000000,-0.0017453293,0.1031489588,3.1166344453,2.3160519174,-417,208,235
-0.1030000000,0.0240000000,-1.0000000000,0.0000000000,-0.0017453293,0.0000000000,0.1031489588,3.1166344453,2.3160519174,-422,213,234
-0.1030000000,0.0240000000,-1.0000000000,0.0000000000,0.0000000000,0.0000000000,0.1031489588,3.1166344453,2.3160519174,-419,208,239
-0.1030000000,0.0230000000,-1.0000000000,0.0017453293,0.0017453293,0.0000000000,0.1031489588,3.1166344453,2.3160519174,-419,208,239
-0.1040000000,0.0230000000,-1.0000000000,0.0000000000,0.0000000000,0.0000000000,0.1031489588,3.1166344453,2.3160519174,-418,209,236
-0.1040000000,0.0240000000,-0.9990000000,0.0000000000,0.0017453293,0.0000000000,0.1031489588,3.1166344453,2.3160519174,-419,213,237
-0.1050000000,0.0240000000,-0.9990000000,0.0017453293,-0.0034906585,0.0000000000,0.1031489588,3.1166344453,2.3160519174,-418,215,234
-0.1040000000,0.0230000000,-0.9990000000,0.0000000000,0.0000000000,-0.0017453293,0.1031489588,3.1166344453,2.3160519174,-418,215,234
-0.1040000000,0.0240000000,-0.9990000000,0.0000000000,0.0000000000,-0.0034906585,0.1031489588,3.1166344453,2.3160519174,-419,212,240
-0.1040000000,0.0240000000,-1.0000000000,0.0000000000,0.0000000000,0.0000000000,0.1031489588,3.1166344453,2.3160519174,-421,208,237
-0.1030000000,0.0240000000,-1.0000000000,0.0000000000,0.0000000000,0.0000000000,0.1031489588,3.1166344453,2.3160519174,-421,211,237
-0.1030000000,0.0240000000,-1.0010000000,0.0017453293,0.0000000000,0.0017453293,0.1031489588,3.1168089782,2.3160519174,-421,211,237
-0.1030000000,0.0240000000,-1.0010000000,0.0000000000,-0.0017453293,0.0000000000,0.1031489588,3.1168089782,2.3160519174,-418,208,237
-0.1030000000,0.0240000000,-1.0010000000,-0.0017453293,0.0000000000,0.0000000000,0.1031489588,3.1168089782,2.3160519174,-423,209,235
-0.1030000000,0.0240000000,-1.0000000000,0.0000000000,0.0034906585,0.0000000000,0.1031489588,3.1168089782,2.3160519174,-421,211,235
-0.1040000000,0.0240000000,-0.9990000000,0.0000000000,0.0017453293,-0.0017453293,0.1031489588,3.1168089782,2.3160519174,-421,211,235
-0.1040000000,0.0240000000,-0.9990000000,0.0000000000,0.0034906585,0.0017453293,0.1031489588,3.1168089782,2.3160519174,-421,210,234
-0.1040000000,0.0240000000,-0.9990000000,0.0000000000,-0.0017453293,0.0000000000,0.1031489588,3.1168089782,2.3160519174,-418,209,238
-0.1040000000,0.0240000000,-0.9990000000,0.0000000000,0.0034906585,-0.0017453293,0.1031489588,3.1168089782,2.3160519174,-419,206,238
-0.1040000000,0.0240000000,-0.9990000000,0.0000000000,0.0017453293,0.0000000000,0.1031489588,3.1168089782,2.3160519174,-420,208,235
-0.1030000000,0.0240000000,-0.9990000000,0.0000000000,0.0000000000,0.0000000000,0.1031489588,3.1168089782,2.3160519174,-421,212,234
-0.1030000000,0.0240000000,-0.9990000000,0.0000000000,0.0000000000,0.0017453293,0.1031489588,3.1168089782,2.3160519174,-419,209,239
-0.1030000000,0.0240000000,-1.0000000000,0.0000000000,0.0000000000,0.0000000000,0.1031489588,3.1168089782,2.3160519174,-421,212,238
-0.1030000000,0.0250000000,-1.0000000000,0.0000000000,0.0017453293,0.0000000000,0.1031489588,3.1168089782,2.3160519174,-421,212,238
-0.1030000000,0.0250000000,-1.0000000000,0.0017453293,0.0000000000,-0.0017453293,0.1031489588,3.1168089782,2.3160519174,-422,212,235
-0.1030000000,0.0250000000,-1.0000000000,0.0000000000,0.0000000000,0.0000000000,0.1031489588,3.1168089782,2.3160519174,-417,211,240
-0.1030000000,0.0250000000,-0.9990000000,0.0017453293,0.0017453293,-0.0017453293,0.1031489588,3.1168089782,2.3160519174,-417,211,240
-0.1030000000,0.0240000000,-0.9990000000,0.0017453293,0.0017453293,0.0000000000,0.1031489588,3.1168089782,2.3160519174,-417,211,240
-0.1030000000,0.0240000000,-1.0000000000,0.0000000000,0.0034906585,0.0000000000,0.1031489588,3.1168089782,2.3160519174,-423,210,235
-0.1030000000,0.0240000000,-1.0000000000,0.0000000000,0.0000000000,0.0000000000,0.1031489588,3.1168089782,2.3160519174,-420,209,235
-0.1020000000,0.0240000000,-1.0000000000,-0.0017453293,0.0000000000,0.0000000000,0.1031489588,3.1168089782,2.3160519174,-419,211,238
-0.1020000000,0.0240000000,-1.0010000000,0.0017453293,0.0052359878,0.0000000000,0.1031489588,3.1168089782,2.3160519174,-419,211,238
-0.1020000000,0.0240000000,-1.0010000000,-0.0017453293,0.0000000000,0.0000000000,0.1031489588,3.1168089782,2.3160519174,-418,216,238
-0.1030000000,0.0240000000,-1.0010000000,0.0017453293,0.0000000000,0.0000000000,0.1031489588,3.1168089782,2.3160519174,-421,213,238
-0.1030000000,0.0240000000,-1.0010000000,0.0000000000,0.0000000000,0.0000000000,0.1031489588,3.1168089782,2.3160519174,-421,215,237
-0.1030000000,0.0240000000,-1.0000000000,0.0000000000,0.0000000000,0.0000000000,0.1031489588,3.1168089782,2.3160519174,-421,215,237
-0.1030000000,0.0240000000,-0.9990000000,-0.0017453293,0.0000000000,0.0017453293,0.1031489588,3.1168089782,2.3160519174,-423,212,235
-0.1030000000,0.0240000000,-0.9990000000,-0.0017453293,0.0000000000,0.0000000000,0.1031489588,3.1168089782,2.3160519174,-417,212,237
-0.1030000000,0.0240000000,-0.9990000000,0.0000000000,0.0000000000,0.0000000000,0.1031489588,3.1168089782,2.3160519174,-419,206,237
-0.1030000000,0.0250000000,-0.9990000000,0.0000000000,0.0000000000,0.0000000000,0.1031489588,3.1168089782,2.3160519174,-422,209,237
-0.1030000000,0.0250000000,-0.9990000000,0.0000000000,0.0000000000,0.0000000000,0.1031489588,3.1168089782,2.3160519174,-422,209,237
-0.1030000000,0.0240000000,-1.0000000000,0.0000000000,0.0000000000,0.0000000000,0.1031489588,3.1168089782,2.3160519174,-419,213,235
-0.1020000000,0.0240000000,-1.0000000000,-0.0017453293,0.0000000000,0.0034906585,0.1031489588,3.1168089782,2.3160519174,-421,208,235
-0.1020000000,0.0240000000,-0.9990000000,0.0000000000,0.0017453293,0.0000000000,0.1031489588,3.1168089782,2.3160519174,-421,208,235
-0.1020000000,0.0240000000,-0.9990000000,0.0000000000,0.0000000000,-0.0017453293,0.1031489588,3.1168089782,2.3160519174,-421,211,237
-0.1020000000,0.0240000000,-0.9990000000,0.0000000000,0.0017453293,0.0000000000,0.1031489588,3.1168089782,2.3160519174,-421,211,237
-0.1020000000,0.0250000000,-1.0000000000,0.0000000000,0.0000000000,0.0000000000,0.1031489588,3.1168089782,2.3160519174,-419,211,236
-0.1020000000,0.0250000000,-1.0000000000,0.0017453293,-0.0017453293,0.0000000000,0.1029744259,3.1168089782,2.3160519174,-419,211,236
-0.1030000000,0.0250000000,-1.0000000000,0.0000000000,0.0000000000,0.0000000000,0.1029744259,3.1168089782,2.3160519174,-419,211,236
-0.1040000000,0.0250000000,-1.0000000000,0.0017453293,0.0000000000,0.0000000000,0.1029744259,3.1168089782,2.3160519174,-418,213,234
-0.1040000000,0.0240000000,-1.0000000000,0.0000000000,0.0000000000,0.0000000000,0.1029744259,3.1168089782,2.3160519174,-417,210,235
-0.1040000000,0.0240000000,-1.0000000000,0.0017453293,0.0000000000,-0.0017453293,0.1031489588,3.1168089782,2.3160519174,-421,204,238
-0.1030000000,0.0240000000,-1.0010000000,-0.0017453293,-0.0034906585,0.0000000000,0.1031489588,3.1168089782,2.3160519174,-417,208,237
-0.1030000000,0.0250000000,-1.0000000000,0.0000000000,0.0000000000,-0.0017453293,0.1031489588,3.1168089782,2.3160519174,-417,208,237
-0.1030000000,0.0240000000,-1.0000000000,0.0034906585,0.0017453293,-0.0017453293,0.1031489588,3.1168089782,2.3160519174,-417,209,238
-0.1030000000,0.0240000000,-0.9990000000,0.0000000000,0.0000000000,0.0017453293,0.1031489588,3.1166344453,2.3160519174,-421,208,235
-0.1030000000,0.0240000000,-0.9990000000,-0.0017453293,0.0000000000,0.0000000000,0.1031489588,3.1166344453,2.3160519174,-417,210,238
-0.1030000000,0.0240000000,-0.9990000000,0.0000000000,0.0000000000,0.0000000000,0.1031489588,3.1166344453,2.3160519174,-417,208,233
-0.1040000000,0.0240000000,-1.0000000000,-0.0017453293,0.0000000000,-0.0017453293,0.1031489588,3.1166344453,2.3160519174,-417,208,233
-0.1040000000,0.0250000000,-1.0000000000,0.0017453293,0.0000000000,0.0000000000,0.1031489588,3.1168089782,2.3160519174,-419,205,237
-0.1040000000,0.0250000000,-1.0000000000,0.0000000000,0.0017453293,0.0000000000,0.1031489588,3.1168089782,2.3160519174,-419,208,237
-0.1040000000,0.0250000000,-1.0000000000,0.0000000000,0.0000000000,0.0000000000,0.1031489588,3.1168089782,2.3160519174,-421,207,238
-0.1030000000,0.0250000000,-1.0000000000,0.0000000000,0.0000000000,0.0000000000,0.1031489588,3.1168089782,2.3160519174,-421,206,235
-0.1030000000,0.0240000000,-0.9990000000,0.0000000000,-0.0017453293,0.0000000000,0.1031489588,3.1168089782,2.3160519174,-421,206,235
-0.1030000000,0.0250000000,-0.9990000000,0.0000000000,-0.0034906585,0.0000000000,0.1031489588,3.1168089782,2.3160519174,-418,212,238
-0.1040000000,0.0250000000,-0.9990000000,0.0017453293,0.0017453293,0.0000000000,0.1031489588,3.1168089782,2.3160519174,-414,211,237
-0.1040000000,0.0250000000,-0.9980000000,0.0000000000,0.0000000000,0.0000000000,0.1031489588,3.1168089782,2.3160519174,-418,211,237
-0.1040000000,0.0250000000,-0.9980000000,0.0000000000,-0.0017453293,0.0000000000,0.1031489588,3.1166344453,2.3160519174,-419,212,234
-0.1040000000,0.0250000000,-0.9990000000,0.0000000000,0.0000000000,0.0000000000,0.1031489588,3.1166344453,2.3160519174,-419,212,234
-0.1040000000,0.0250000000,-1.0000000000,0.0000000000,0.0000000000,-0.0017453293,0.1031489588,3.1166344453,2.3160519174,-421,208,233
-0.1040000000,0.0250000000,-0.9990000000,0.0000000000,0.0017453293,0.0000000000,0.1031489588,3.1166344453,2.3160519174,-423,211,235
-0.1040000000,0.0250000000,-0.9990000000,0.0000000000,0.0000000000,0.0000000000,0.1031489588,3.1166344453,2.3160519174,-423,211,235
-0.1040000000,0.0240000000,-0.9990000000,0.0034906585,0.0034906585,0.0000000000,0.1031489588,3.1166344453,2.3160519174,-415,209,238
-0.1030000000,0.0240000000,-0.9990000000,0.0000000000,0.0000000000,0.0000000000,0.1031489588,3.1166344453,2.3160519174,-415,209,238
-0.1040000000,0.0240000000,-1.0000000000,0.0017453293,0.0000000000,0.0000000000,0.1031489588,3.1166344453,2.3160519174,-419,211,235
-0.1040000000,0.0250000000,-1.0000000000,0.0000000000,-0.0034906585,0.0000000000,0.1031489588,3.1166344453,2.3160519174,-420,211,236
-0.1040000000,0.0240000000,-0.9990000000,0.0000000000,0.0000000000,0.0000000000,0.1031489588,3.1166344453,2.3160519174,-420,208,234
-0.1040000000,0.0250000000,-0.9990000000,-0.0017453293,-0.0034906585,0.0034906585,0.1031489588,3.1166344453,2.3160519174,-421,213,234
-0.1030000000,0.0250000000,-0.9990000000,0.0017453293,0.0052359878,-0.0017453293,0.1031489588,3.1166344453,2.3160519174,-421,213,234
-0.1030000000,0.0250000000,-1.0000000000,0.0000000000,0.0000000000,0.0000000000,0.1031489588,3.1166344453,2.3160519174,-419,210,235
-0.1030000000,0.0250000000,-1.0000000000,0.0000000000,0.0000000000,0.0000000000,0.1031489588,3.1166344453,2.3160519174,-418,210,239
-0.1040000000,0.0240000000,-1.0000000000,0.0000000000,0.0034906585,0.0017453293,0.1031489588,3.1166344453,2.3160519174,-417,209,236
-0.1040000000,0.0240000000,-1.0000000000,0.0000000000,0.0000000000,0.0017453293,0.1031489588,3.1166344453,2.3160519174,-421,208,239
-0.1030000000,0.0240000000,-1.0000000000,0.0000000000,0.0000000000,0.0000000000,0.1031489588,3.1166344453,2.3160519174,-421,208,239
-0.1030000000,0.0240000000,-1.0010000000,0.0000000000,0.0000000000,0.0017453293,0.1031489588,3.1166344453,2.3160519174,-421,214,234
-0.1030000000,0.0240000000,-1.0000000000,0.0000000000,0.0017453293,0.0000000000,0.1031489588,3.1166344453,2.3160519174,-421,211,236
-0.1030000000,0.0250000000,-1.0000000000,0.0000000000,0.0000000000,0.0000000000,0.1031489588,3.1166344453,2.3160519174,-421,206,233
-0.1030000000,0.0250000000,-1.0000000000,0.0017453293,0.0000000000,0.0000000000,0.1031489588,3.1166344453,2.3160519174,-421,211,231
-0.1030000000,0.0240000000,-1.0000000000,0.0000000000,0.0000000000,0.0000000000,0.1031489588,3.1166344453,2.3160519174,-421,211,231
-0.1040000000,0.0240000000,-0.9990000000,0.0000000000,0.0017453293,0.0000000000,0.1031489588,3.1166344453,2.3160519174,-419,212,234
-0.1040000000,0.0240000000,-0.9990000000,0.0000000000,-0.0034906585,0.0000000000,0.1031489588,3.1166344453,2.3160519174,-422,211,235
-0.1040000000,0.0250000000,-1.0000000000,0.0000000000,0.0000000000,0.0000000000,0.1031489588,3.1166344453,2.3160519174,-422,212,237
-0.1030000000,0.0250000000,-1.0000000000,0.0000000000,-0.0017453293,0.0000000000,0.1031489588,3.1166344453,2.3160519174,-419,211,235
-0.1040000000,0.0270000000,-1.0000000000,0.0000000000,0.0034906585,-0.0017453293,0.1031489588,3.1166344453,2.3160519174,-419,211,235
-0.1050000000,0.0260000000,-0.9990000000,0.0017453293,0.0017453293,0.0000000000,0.1031489588,3.1166344453,2.3160519174,-417,210,238
-0.1040000000,0.0230000000,-0.9990000000,0.0000000000,0.0000000000,0.0000000000,0.1033234917,3.1166344453,2.3160519174,-418,208,241
-0.1030000000,0.0220000000,-0.9980000000,0.0000000000,0.0000000000,0.0000000000,0.1033234917,3.1166344453,2.3160519174,-416,214,238
-0.1020000000,0.0250000000,-0.9990000000,0.0000000000,0.0000000000,0.0000000000,0.1033234917,3.1166344453,2.3160519174,-417,210,240
-0.1030000000,0.0250000000,-1.0000000000,-0.0017453293,0.0000000000,0.0000000000,0.1033234917,3.1166344453,2.3160519174,-417,210,240
-0.1050000000,0.0240000000,-0.9990000000,0.0000000000,0.0000000000,0.0000000000,0.1033234917,3.1166344453,2.3160519174,-418,212,236
-0.1050000000,0.0240000000,-0.9990000000,0.0000000000,0.0000000000,-0.0017453293,0.1033234917,3.1166344453,2.3160519174,-418,208,235
-0.1010000000,0.0250000000,-0.9990000000,-0.0052359878,-0.0017453293,0.0000000000,0.1033234917,3.1166344453,2.3160519174,-417,210,238
-0.0990000000,0.0240000000,-1.0000000000,-0.0052359878,-0.0017453293,-0.0017453293,0.1033234917,3.1166344453,2.3160519174,-421,209,236
-0.1020000000,0.0230000000,-0.9990000000,0.0000000000,0.0017453293,0.0000000000,0.1031489588,3.1166344453,2.3160519174,-421,209,236
-0.1030000000,0.0230000000,-0.9900000000,0.0069813170,0.0244346095,0.0000000000,0.1031489588,3.1166344453,2.3160519174,-417,211,234
-0.0970000000,0.0210000000,-0.9890000000,0.0000000000,0.0226892803,-0.0017453293,0.1027998929,3.1166344453,2.3160519174,-421,214,233
-0.0910000000,0.0190000000,-1.0000000000,-0.0069813170,-0.0349065850,0.0000000000,0.1027998929,3.1166344453,2.3160519174,-418,211,237
-0.0960000000,0.0170000000,-1.0030000000,-0.0296705973,-0.0314159265,0.0000000000,0.1031489588,3.1164599124,2.3160519174,-420,208,234
-0.0960000000,0.0110000000,-1.0070000000,0.0017453293,0.0122173048,0.0314159265,0.1033234917,3.1162853794,2.3160519174,-420,208,234
-0.1030000000,0.0070000000,-1.0070000000,-0.0034906585,0.0052359878,0.0366519143,0.1033234917,3.1162853794,2.3160519174,-423,209,233
-0.1120000000,0.0300000000,-1.0010000000,0.0017453293,0.0139626340,-0.0017453293,0.1033234917,3.1162853794,2.3160519174,-420,211,235
-0.1140000000,0.0440000000,-0.9990000000,0.0069813170,0.0069813170,-0.0017453293,0.1033234917,3.1161108465,2.3160519174,-424,209,236
-0.1140000000,0.0450000000,-0.9980000000,0.0052359878,0.0087266463,-0.0052359878,0.1033234917,3.1161108465,2.3160519174,-420,211,238
-0.1140000000,0.0420000000,-1.0000000000,0.0069813170,0.0034906585,-0.0034906585,0.1033234917,3.1161108465,2.3160519174,-420,211,238
-0.1110000000,0.0380000000,-1.0010000000,0.0087266463,0.0069813170,0.0000000000,0.1033234917,3.1161108465,2.3160519174,-420,210,239
-0.1060000000,0.0300000000,-1.0020000000,0.0087266463,0.0052359878,-0.0034906585,0.1033234917,3.1161108465,2.3160519174,-421,210,237
-0.1020000000,0.0230000000,-1.0000000000,0.0069813170,0.0017453293,0.0000000000,0.1033234917,3.1161108465,2.3160519174,-420,211,242
-0.1000000000,0.0200000000,-0.9990000000,0.0069813170,0.0034906585,0.0000000000,0.1033234917,3.1161108465,2.3160519174,-418,210,237
-0.1000000000,0.0200000000,-0.9990000000,0.0017453293,0.0000000000,0.0000000000,0.1033234917,3.1161108465,2.3160519174,-418,210,237
-0.0980000000,0.0220000000,-0.9990000000,0.0017453293,0.0052359878,-0.0017453293,0.1033234917,3.1161108465,2.3160519174,-420,207,235
-0.0970000000,0.0220000000,-0.9990000000,0.0034906585,0.0034906585,-0.0034906585,0.1033234917,3.1161108465,2.3160519174,-421,208,235
-0.0980000000,0.0210000000,-0.9990000000,0.0052359878,0.0000000000,-0.0017453293,0.1033234917,3.1161108465,2.3160519174,-420,206,242
-0.0990000000,0.0230000000,-1.0000000000,0.0000000000,0.0000000000,-0.0034906585,0.1033234917,3.1161108465,2.3160519174,-421,209,240
-0.1010000000,0.0260000000,-1.0010000000,0.0000000000,-0.0034906585,0.0000000000,0.1031489588,3.1161108465,2.3160519174,-421,209,240
-0.1030000000,0.0280000000,-1.0010000000,0.0000000000,-0.0017453293,-0.0017453293,0.1031489588,3.1161108465,2.3160519174,-423,207,238
-0.1030000000,0.0280000000,-1.0010000000,0.0000000000,-0.0017453293,0.0000000000,0.1031489588,3.1161108465,2.3160519174,-423,208,236
-0.1020000000,0.0250000000,-1.0000000000,0.0000000000,0.0000000000,-0.0017453293,0.1031489588,3.1161108465,2.3160519174,-422,207,234
-0.1000000000,0.0220000000,-0.9980000000,0.0017453293,0.0000000000,-0.0017453293,0.1031489588,3.1161108465,2.3160519174,-421,209,236
-0.1000000000,0.0210000000,-0.9980000000,0.0017453293,-0.0017453293,-0.0052359878,0.1031489588,3.1161108465,2.3160519174,-421,209,236
-0.1010000000,0.0220000000,-0.9990000000,0.0052359878,0.0000000000,-0.0052359878,0.1031489588,3.1161108465,2.3160519174,-419,210,239
-0.1040000000,0.0250000000,-1.0000000000,0.0034906585,0.0000000000,-0.0069813170,0.1031489588,3.1161108465,2.3160519174,-416,210,235
-0.1070000000,0.0270000000,-1.0010000000,0.0052359878,0.0069813170,-0.0052359878,0.1031489588,3.1161108465,2.3160519174,-423,205,235
-0.1090000000,0.0280000000,-1.0010000000,0.0069813170,0.0052359878,-0.0052359878,0.1031489588,3.1161108465,2.3160519174,-421,209,235
-0.1080000000,0.0270000000,-1.0000000000,0.0034906585,0.0052359878,-0.0034906585,0.1031489588,3.1161108465,2.3160519174,-421,209,235
-0.1060000000,0.0240000000,-0.9990000000,0.0017453293,0.0087266463,-0.0017453293,0.1031489588,3.1161108465,2.3160519174,-421,212,238
-0.1040000000,0.0210000000,-0.9980000000,-0.0017453293,0.0069813170,0.0000000000,0.1033234917,3.1161108465,2.3160519174,-421,213,235
-0.1010000000,0.0190000000,-0.9970000000,0.0000000000,0.0052359878,0.0000000000,0.1033234917,3.1161108465,2.3160519174,-421,209,240
-0.0970000000,0.0180000000,-0.9970000000,0.0000000000,0.0034906585,0.0000000000,0.1033234917,3.1161108465,2.3160519174,-421,211,237
-0.0960000000,0.0190000000,-0.9980000000,0.0000000000,0.0069813170,0.0000000000,0.1033234917,3.1161108465,2.3160519174,-421,211,237
-0.0980000000,0.0220000000,-1.0000000000,0.0000000000,0.0069813170,-0.0052359878,0.1031489588,3.1162853794,2.3160519174,-420,212,238
-0.1000000000,0.0250000000,-1.0010000000,-0.0017453293,0.0122173048,-0.0034906585,0.1031489588,3.1162853794,2.3160519174,-417,213,239
-0.1030000000,0.0260000000,-1.0010000000,-0.0017453293,0.0104719755,0.0000000000,0.1031489588,3.1162853794,2.3160519174,-420,211,240
-0.1020000000,0.0250000000,-1.0010000000,0.0000000000,0.0069813170,0.0000000000,0.1031489588,3.1162853794,2.3160519174,-417,212,235
-0.1010000000,0.0240000000,-1.0020000000,0.0000000000,0.0000000000,0.0000000000,0.1031489588,3.1162853794,2.3160519174,-417,212,235
-0.1020000000,0.0250000000,-1.0020000000,0.0017453293,0.0000000000,0.0000000000,0.1031489588,3.1162853794,2.3160519174,-421,214,238
-0.1030000000,0.0250000000,-1.0020000000,0.0000000000,0.0034906585,-0.0017453293,0.1031489588,3.1162853794,2.3160519174,-421,217,237
-0.1040000000,0.0240000000,-1.0010000000,0.0017453293,0.0052359878,0.0000000000,0.1031489588,3.1162853794,2.3160519174,-421,213,235
-0.1050000000,0.0230000000,-1.0000000000,0.0000000000,0.0034906585,0.0034906585,0.1031489588,3.1162853794,2.3160519174,-418,215,235
-0.1040000000,0.0230000000,-1.0000000000,0.0000000000,0.0034906585,0.0017453293,0.1031489588,3.1162853794,2.3160519174,-418,215,235
-0.1030000000,0.0240000000,-1.0010000000,0.0000000000,-0.0034906585,-0.0034906585,0.1031489588,3.1162853794,2.3160519174,-422,206,236
-0.1020000000,0.0250000000,-1.0020000000,0.0000000000,0.0000000000,0.0000000000,0.1031489588,3.1162853794,2.3160519174,-421,210,237
-0.1040000000,0.0260000000,-1.0020000000,-0.0034906585,0.0017453293,0.0017453293,0.1031489588,3.1162853794,2.3160519174,-422,210,238
-0.1030000000,0.0250000000,-1.0010000000,-0.0104719755,-0.0017453293,0.0000000000,0.1031489588,3.1162853794,2.3160519174,-421,206,235
-0.1010000000,0.0240000000,-1.0010000000,-0.0261799388,-0.0279252680,0.0017453293,0.1033234917,3.1161108465,2.3160519174,-421,206,235
-0.1000000000,0.0210000000,-1.0060000000,-0.0575958653,-0.0401425728,0.0087266463,0.1036725576,3.1157617807,2.3160519174,-420,209,240
-0.1000000000,0.0190000000,-1.0080000000,-0.0942477796,-0.0523598776,0.0104719755,0.1040216234,3.1150636490,2.3160519174,-419,210,238
-0.1020000000,0.0190000000,-1.0120000000,-0.1151917306,-0.0523598776,0.0104719755,0.1047197551,3.1140164514,2.3160519174,-416,211,238
-0.1040000000,0.0200000000,-1.0110000000,-0.1396263402,-0.0296705973,0.0139626340,0.1050688210,3.1126201880,2.3160519174,-419,208,241
-0.1070000000,0.0230000000,-1.0120000000,-0.1535889742,-0.0383972435,0.0261799388,0.1054178868,3.1112239246,2.3160519174,-420,209,235
-0.1120000000,0.0360000000,-1.0120000000,-0.1658062789,-0.0575958653,0.0052359878,0.1057669527,3.1096531283,2.3143065881,-422,206,244
-0.1130000000,0.0570000000,-1.0220000000,-0.2164208272,0.0191986218,-0.0314159265,0.1061160185,3.1079077990,2.3143065881,-416,205,242
-0.1170000000,0.0690000000,-1.0520000000,-0.3857177647,0.0418879020,-0.0034906585,0.1057669527,3.1051152722,2.3160519174,-423,204,243
-0.1170000000,0.0620000000,-1.1030000000,-0.6894050545,0.1117010721,-0.0209439510,0.1050688210,3.0998792845,2.3160519174,-421,200,243
-0.1160000000,0.0490000000,-1.1370000000,-0.9040805525,0.0925024504,-0.0349065850,0.1040216234,3.0920253028,2.3160519174,-421,200,243
-0.1270000000,0.0550000000,-1.1300000000,-0.9948376736,0.0628318531,0.0034906585,0.1031489588,3.0824259919,2.3160519174,-419,198,243
-0.1470000000,0.0860000000,-1.1070000000,-1.0786134777,0.1902408885,0.1308996939,0.1022762942,3.0723030823,2.3160519174,-420,191,244
-0.1650000000,0.1100000000,-1.1110000000,-1.3316862193,0.2635447171,0.2722713633,0.0994837674,3.0600857775,2.3143065881,-421,189,251
-0.1840000000,0.1090000000,-1.1230000000,-1.4870205227,0.1588249619,0.4660029103,0.0972148393,3.0455995447,2.3108159296,-417,187,257
-0.1880000000,0.0820000000,-1.0980000000,-1.5446163880,0.1902408885,0.5654866776,0.0949459113,3.0300661144,2.3055799419,-417,187,257
-0.1710000000,0.1010000000,-1.0700000000,-1.5690509975,0.1291543646,0.5532693729,0.0923279174,3.0138345523,2.3003439541,-418,174,264
-0.1240000000,0.1500000000,-1.0490000000,-1.6091935703,0.0488692191,0.4921828491,0.0909316540,2.9977775232,2.2951079664,-413,169,267
-0.0750000000,0.2070000000,-1.0530000000,-1.7872171540,0.0541052068,0.4310963252,0.0897099236,2.9804987636,2.2898719786,-411,159,270
-0.0530000000,0.2470000000,-1.0800000000,-2.0385445663,0.0837758041,0.4468042885,0.0883136602,2.9611256089,2.2863813201,-412,161,270
-0.0530000000,0.2720000000,-1.1080000000,-2.2759093446,0.1029744259,0.4502949470,0.0865683309,2.9393089933,2.2811453324,-412,161,270
-0.0630000000,0.3010000000,-1.1200000000,-2.5429447202,0.1029744259,0.3717551307,0.0846484687,2.9150489167,2.2776546739,-410,141,281
-0.0730000000,0.3400000000,-1.1210000000,-2.8239427297,0.1640609497,0.2234021443,0.0827286065,2.8881708462,2.2759093446,-408,132,287
-0.0860000000,0.3210000000,-1.1020000000,-2.9077185338,0.2146754980,0.0628318531,0.0804596785,2.8593729135,2.2741640153,-408,117,292
-0.1030000000,0.2470000000,-1.0390000000,-2.8431413515,0.2565634000,-0.1431169987,0.0783652834,2.8305749809,2.2759093446,-408,106,292
-0.1060000000,0.1450000000,-0.9860000000,-2.7349309379,0.0541052068,0.2129301687,0.0766199542,2.8028242458,2.2759093446,-406,89,297
-0.0500000000,0.0620000000,-0.9820000000,-2.7157323161,0.1797689130,0.3577924967,0.0748746249,2.7755971094,2.2724186861,-410,83,302
0.0350000000,0.0850000000,-1.0120000000,-2.9775317039,0.4345869837,0.1134464014,0.0708603676,2.7474973085,2.2724186861,-409,68,303
0.0690000000,0.2170000000,-1.0610000000,-3.4958944917,0.3019419606,-0.0436332313,0.0673697091,2.7155577832,2.2724186861,-410,52,307
0.0430000000,0.3910000000,-1.0590000000,-3.9357174632,0.3141592654,-0.0837758041,0.0649262482,2.6789058689,2.2759093446,-414,35,311
0.0140000000,0.5520000000,-1.0490000000,-4.5570546770,0.4345869837,-0.2042035225,0.0623082543,2.6371924998,2.2776546739,-414,35,311
0.0000000000,0.6250000000,-1.0810000000,-5.1399946471,0.6649704450,-0.3246312409,0.0591666616,2.5891959453,2.2828906616,-413,-3,315
-0.0130000000,0.6520000000,-1.1170000000,-5.4140113397,1.1711159281,-0.6126105675,0.0542797397,2.5370106007,2.2916173079,-413,-26,319
-0.0600000000,0.7040000000,-1.1400000000,-5.4628805587,1.7575465568,-0.8534660042,0.0471238898,2.4832544597,2.3055799419,-425,-54,313
-0.1180000000,0.7720000000,-1.1700000000,-5.1749012322,2.5307274154,-1.0908307825,0.0370009801,2.4303709834,2.3265238929,-435,-80,305
-0.1470000000,0.8140000000,-1.2030000000,-4.8153634063,3.4452799434,-1.2618730492,0.0233874120,2.3816762973,2.3544491609,-435,-80,305
-0.1620000000,0.8900000000,-1.2440000000,-4.8869219056,4.3737951055,-1.1990411961,0.0047123890,2.3340288087,2.3911010752,-463,-131,276
-0.1600000000,0.9680000000,-1.2620000000,-5.3145275723,5.1749012322,-1.0122909662,-0.0186750230,2.2832397275,2.4329889773,-480,-154,250
-0.0950000000,1.0050000000,-1.2370000000,-5.9166661643,5.7508598853,-0.8098327729,-0.0460766923,2.2259929280,2.4818581963,-500,-177,225
0.0280000000,1.0070000000,-1.1720000000,-6.4193209888,6.2168627956,-0.7086036763,-0.0747000920,2.1614157457,2.5342180739,-519,-201,192
0.1850000000,0.9930000000,-1.1150000000,-6.8294733631,6.6462137916,-0.7016223593,-0.1024508271,2.0902063122,2.5935592685,-519,-201,192
0.3050000000,0.9910000000,-1.0680000000,-7.0720741291,6.8399453386,-0.5218534463,-0.1279326342,2.0134118251,2.6563911215,-552,-249,123
0.3570000000,0.9940000000,-1.0090000000,-7.1663219087,6.7771134855,-0.1221730476,-0.1513200461,1.9333012124,2.7209683039,-570,-264,83
0.3610000000,0.9980000000,-0.9310000000,-7.1785392135,6.5606926582,0.4084070450,-0.1736602606,1.8512707376,2.7855454862,-580,-274,43
0.3570000000,1.0020000000,-0.8450000000,-7.0581114951,6.2412974051,1.0297442587,-0.1953023433,1.7687166640,2.8466320100,-595,-281,0
0.3620000000,1.0150000000,-0.7680000000,-6.8207467168,5.9690260418,1.6353735091,-0.2179916236,1.6870352550,2.9059732046,-605,-280,-47
0.3930000000,1.0440000000,-0.7250000000,-6.4385196106,5.8730329330,2.0751964806,-0.2408554368,1.6072737082,2.9670597284,-610,-275,-81
0.4610000000,1.0860000000,-0.7220000000,-6.0423298704,5.9794980173,2.3177972466,-0.2626720524,1.5296065564,3.0281462522,-615,-265,-114
0.5380000000,1.1530000000,-0.7330000000,-5.8154370676,6.0109139439,2.6337018413,-0.2820452071,1.4533356681,3.0927234345,-616,-251,-155
0.5290000000,1.3220000000,-0.7200000000,-5.7299159343,5.7979837751,3.2114058237,-0.3012438289,1.3765411810,-3.1241393611,-621,-233,-191
0.5290000000,1.3220000000,-0.7200000000,-5.1679199152,5.6496307887,3.8728856102,-0.3223623128,1.3009684244,-3.0543261910,-621,-233,-191
0.4690000000,1.3800000000,-0.6880000000,-4.4959681531,5.5833082771,4.6181412008,-0.3452261260,1.2297589910,-2.9845130209,-619,-187,-251
0.3750000000,1.4690000000,-0.6200000000,-4.1922808633,5.3564154744,5.5169857656,-0.3717551307,1.1602948867,-2.9094638631,-616,-153,-277
0.1310000000,1.5140000000,-0.3870000000,-3.7053340020,5.0823987818,6.3460171603,-0.4022983926,1.0908307825,-2.8326693760,-612,-120,-308
-0.0220000000,1.4470000000,-0.2010000000,-3.1590459461,4.5971972498,6.9882983250,-0.4361577801,1.0227629417,-2.7488935719,-603,-83,-324
-0.1880000000,1.3470000000,0.0100000000,-2.5830872930,3.8292523789,7.3862333944,-0.4728096944,0.9571385618,-2.6668630970,-603,-83,-324
-0.3240000000,1.2330000000,0.2090000000,-1.9634954085,2.9024825461,7.5084064421,-0.5119050696,0.8955284392,-2.5848326222,-579,-7,-349
-0.3990000000,1.1110000000,0.3620000000,-1.3299408900,1.9303341527,7.3670347727,-0.5527457741,0.8393288373,-2.5062928059,-567,29,-352
-0.4130000000,1.0040000000,0.4590000000,-0.7470009199,0.9564404301,7.0546208366,-0.5949827420,0.7895869536,-2.4347343065,-557,54,-352
-0.3810000000,0.9280000000,0.5150000000,-0.1326450232,0.0000000000,6.6741390596,-0.6389650392,0.7471754528,-2.3701571242,-548,81,-356
-0.3200000000,0.8830000000,0.5560000000,0.6126105675,-0.8936085770,6.3948863793,-0.6859143960,0.7131415324,-2.3108159296,-534,111,-352
-0.2460000000,0.8670000000,0.5950000000,1.3229595730,-1.7034413499,6.2936572827,-0.7360053456,0.6881833241,-2.2584560521,-525,129,-350
-0.1680000000,0.8540000000,0.6510000000,2.0158552861,-2.3841197582,6.3163465630,-0.7909832170,0.6698573669,-2.2078415038,-518,141,-344
-0.0970000000,0.8010000000,0.7330000000,2.5865779515,-3.0717794835,6.4943701467,-0.8513716091,0.6564183317,-2.1589722847,-506,161,-339
-0.0120000000,0.6900000000,0.8680000000,3.1625366046,-3.8362336959,6.6444684623,-0.9180431865,0.6462954220,-2.1083577364,-501,176,-336
0.0790000000,0.5540000000,1.0380000000,3.7175513067,-4.7944194552,6.7282442664,-0.9920451468,0.6410594343,-2.0612338466,-489,195,-325
0.1300000000,0.4480000000,1.1650000000,4.1085050592,-5.7735491656,6.7945667780,-1.0744246875,0.6419320989,-2.0158552861,-484,211,-319
0.1380000000,0.3820000000,1.2040000000,4.4750242021,-6.6444684623,6.7422069005,-1.1643091440,0.6496115476,-1.9774580425,-475,218,-309
0.1350000000,0.3220000000,1.1850000000,4.8973938811,-7.5485490149,6.5694193045,-1.2606513187,0.6709045645,-1.9495327745,-470,231,-304
0.1350000000,0.2430000000,1.1320000000,5.3756140961,-8.4177229824,6.3355451847,-1.3629276129,0.7285004298,-1.9565140915,-465,240,-295
0.1280000000,0.1510000000,1.0600000000,5.8835049085,-9.2153384505,6.0964350772,-1.4679964339,0.9283406291,-2.1013764194,-455,251,-285
0.1080000000,0.0550000000,0.9890000000,6.4158303303,-10.0792764303,5.8433623357,-1.5268140296,2.5867524844,2.5795966344,-457,258,-278
0.0730000000,-0.0510000000,0.9230000000,6.9516464107,-11.0898220672,5.5100044485,-1.4234905379,-2.8689722244,1.8168877513,-455,263,-265
0.0350000000,-0.1990000000,0.8260000000,7.7527525374,-12.0654611190,4.9253191491,-1.2971287001,-2.7413886561,1.7610372153,-453,265,-260
0.0120000000,-0.3570000000,0.6740000000,8.5817839321,-12.5925505531,4.0631264986,-1.1667526050,-2.6867598505,1.7889624833,-452,266,-256
-0.0070000000,-0.4960000000,0.4750000000,8.9989176233,-12.9643056838,3.1398473243,-1.0365510428,-2.6494098045,1.8465583486,-456,263,-250
-0.0130000000,-0.6200000000,0.2490000000,9.1437799512,-13.0114295736,2.1554816262,-0.9100146720,-2.6167721475,1.9163715187,-458,262,-238
0.0010000000,-0.7240000000,0.0220000000,9.0338242083,-12.7548661736,1.1484266478,-0.7906341512,-2.5846580893,1.9949113350,-469,258,-229
0.0320000000,-0.7950000000,-0.1870000000,8.6376344681,-12.2382487150,0.1308996939,-0.6817256058,-2.5520204323,2.0804324684,-486,248,-224
0.0720000000,-0.8260000000,-0.3790000000,8.1087997048,-11.4441239053,-0.7452555906,-0.5857324970,-2.5195573082,2.1659536017,-498,234,-211
0.1050000000,-0.8240000000,-0.5540000000,7.5136424298,-10.1106923568,-1.1711159281,-0.5042256209,-2.4849997890,2.2514747351,-509,223,-203
0.1430000000,-0.7820000000,-0.7020000000,6.6392324746,-8.7685341620,-1.3962634016,-0.4382521752,-2.4486969405,2.3282692222,-517,215,-194
0.1950000000,-0.7260000000,-0.7640000000,5.6217055207,-7.8278016952,-1.6126842288,-0.3851941659,-2.4155356848,2.3998277215,-532,205,-182
0.2300000000,-0.6680000000,-0.7070000000,4.6478117981,-7.3670347727,-1.7889624833,-0.3405137371,-2.3879594826,2.4678955623,-540,193,-170
0.2240000000,-0.6100000000,-0.5660000000,3.7507125625,-7.1104713726,-1.9931660058,-0.3014183618,-2.3666664657,2.5342180739,-546,187,-152
0.1840000000,-0.5580000000,-0.4210000000,2.8536133270,-6.9621183862,-2.2113321623,-0.2663372439,-2.3520057000,2.6022859147,-555,175,-133
0.1300000000,-0.5170000000,-0.3250000000,1.8971728969,-6.8102747413,-2.3038346126,-0.2342231856,-2.3445007842,2.6703537556,-561,162,-110
0.0800000000,-0.4790000000,-0.3020000000,0.9616764178,-6.5554566705,-2.3614304779,-0.2040289896,-2.3439771854,2.7349309379,-568,157,-86
0.0400000000,-0.4530000000,-0.3510000000,0.0034906585,-6.1557762718,-2.3090706004,-0.1761037215,-2.3506094366,2.7977627909,-574,146,-63
0.0220000000,-0.4520000000,-0.4480000000,-1.0175269539,-5.5396750458,-2.1310470167,-0.1502728486,-2.3645720706,2.8571039855,-569,136,-36
0.0390000000,-0.4760000000,-0.5580000000,-2.1083577364,-4.7472955654,-1.9076448724,-0.1270599695,-2.3867377521,2.9077185338,-567,127,-13
0.0740000000,-0.4930000000,-0.6440000000,-3.2271137869,-4.0037853041,-1.6737707527,-0.1068141502,-2.4178046128,2.9513517651,-569,118,5
0.0710000000,-0.4530000000,-0.6750000000,-4.2778019966,-3.5273104183,-1.4835298642,-0.0883136602,-2.4584707844,2.9880036794,-566,103,33
0.0120000000,-0.3620000000,-0.6540000000,-5.2185344635,-3.3388148591,-1.4521139377,-0.0701622359,-2.5080381351,3.0194196060,-563,88,53
-0.0780000000,-0.2500000000,-0.6100000000,-6.1034163942,-3.3231068958,-1.6161748873,-0.0514872129,-2.5659830663,3.0508355325,-561,72,80
-0.1720000000,-0.1400000000,-0.5880000000,-6.9778263495,-3.2271137869,-1.8360863731,-0.0321140582,-2.6321310449,3.0822514590,-555,48,106
-0.2270000000,-0.0320000000,-0.6320000000,-7.8853975605,-2.8989918876,-2.0176006153,-0.0134390352,-2.7066566040,3.1136673856,-551,25,121
-0.2180000000,0.0840000000,-0.7420000000,-8.7493355402,-2.3911010752,-2.0769418099,0.0033161256,-2.7893852105,-3.1381019951,-549,-8,138
-0.1390000000,0.2110000000,-0.8820000000,-9.4963364601,-1.8029251173,-1.9757127133,0.0172787596,-2.8799677987,-3.1119220563,-546,-41,148
-0.0060000000,0.3430000000,-1.0200000000,-10.0391338575,-1.2409290982,-1.6807520697,0.0284488668,-2.9768335722,-3.0909781053,-544,-76,156
0.1350000000,0.4840000000,-1.1260000000,-10.4283422807,-0.8621926505,-1.2531464029,0.0371755131,-3.0784117347,-3.0752701420,-534,-118,160
0.3070000000,0.7920000000,-1.2260000000,-10.7407562168,-0.6248278722,-0.8429940287,0.0445058959,3.0995302186,-3.0647981665,-531,-146,157
0.3070000000,0.7920000000,-1.2260000000,-11.0496794944,-0.4118977035,-0.5218534463,0.0504400154,2.9913198050,-3.0595621787,-531,-183,152
0.3390000000,0.9450000000,-1.2520000000,-11.4406332468,-0.1099557429,-0.3141592654,0.0539306739,2.8794441999,-3.0560715202,-527,-214,138
0.3600000000,1.0950000000,-1.2770000000,-11.7635191584,0.1483529864,-0.1623156204,0.0546288056,2.7637288705,-3.0543261910,-529,-247,119
0.3720000000,1.3950000000,-1.2610000000,-12.0008839367,0.3019419606,0.0209439510,0.0528834763,2.6453955472,-3.0525808617,-529,-283,93
0.3520000000,1.5360000000,-1.2230000000,-12.1614542279,0.3944444110,0.2303834613,0.0493928178,2.5247932959,-3.0508355325,-527,-306,75
0.3180000000,1.6510000000,-1.1790000000,-12.2714099708,0.4974188368,0.4118977035,0.0439822972,2.4029693141,-3.0508355325,-531,-327,41
0.2790000000,1.7330000000,-1.1390000000,-12.3098072143,0.5951572749,0.5288347634,0.0368264472,2.2802726677,-3.0508355325,-534,-346,5
0.2440000000,1.7870000000,-1.1020000000,-12.2975899096,0.7086036763,0.5934119457,0.0284488668,2.1575760213,-3.0490902032,-539,-359,-27
0.2260000000,1.8120000000,-1.0680000000,-12.2539566783,0.8744099552,0.6143558967,0.0193731547,2.0350539078,-3.0455995447,-538,-377,-66
0.2410000000,1.8130000000,-1.0370000000,-12.1509822524,1.1222467090,0.5707226654,0.0099483767,1.9114845968,-3.0386182277,-536,-376,-100
0.2930000000,1.8090000000,-1.0030000000,-12.0148465707,1.4643312424,0.5235987756,0.0012217305,1.7924531418,-3.0281462522,-540,-380,-138
0.3880000000,1.7900000000,-0.9500000000,-11.7774817925,1.8640116411,0.4502949470,-0.0061086524,1.6735962197,-3.0124382889,-543,-375,-180
0.4970000000,1.7850000000,-0.8780000000,-11.5366263557,2.2026055160,0.3804817769,-0.0111701072,1.5568336928,-2.9914943379,-540,-365,-219
0.5940000000,1.8150000000,-0.7910000000,-11.1666165543,2.4975661596,0.2216568150,-0.0125663706,1.4430382255,-2.9670597284,-539,-354,-268
0.6260000000,1.8910000000,-0.6790000000,-10.6639617297,2.6808257311,0.2181661565,-0.0097738438,1.3334315485,-2.9408797896,-533,-345,-300
0.5820000000,1.9850000000,-0.5290000000,-10.0967297228,2.5656340004,0.5201081171,-0.0054105207,1.2294099251,-2.9146998508,-527,-322,-333
0.4510000000,2.0920000000,-0.3430000000,-9.6254908247,1.9495327745,1.2461650859,-0.0038397244,1.1307988224,-2.8885199121,-529,-295,-363
0.2180000000,2.1910000000,-0.1200000000,-9.1647239022,0.4660029103,2.8745572780,-0.0141371669,1.0363765098,-2.8675759610,-532,-263,-378
-0.0010000000,2.2170000000,0.1160000000,-8.0721477905,-1.5777776438,4.9305551369,-0.0486946861,0.9484119155,-2.8501226685,-546,-222,-385
-0.1100000000,2.1510000000,0.2170000000,-6.2674773439,-3.1799898971,6.3913957208,-0.1075122819,0.8745844882,-2.8344147052,-556,-188,-373
-0.2160000000,2.0410000000,0.0980000000,-4.5343653967,-3.9304814755,7.3548174679,-0.1825614398,0.8171631558,-2.8152160835,-568,-149,-362
-0.4000000000,1.9290000000,-0.1570000000,-2.8588493148,-4.1207223640,8.0093159374,-0.2654645792,0.7737044574,-2.7890361447,-580,-106,-342
-0.5890000000,1.7810000000,-0.4580000000,-1.1711159281,-3.8868482442,8.4089963361,-0.3509857126,0.7424630638,-2.7558748889,-592,-69,-325
-0.7090000000,1.5570000000,-0.6960000000,0.7853981634,-3.6180675394,8.6236718341,-0.4358087142,0.7234389750,-2.7139869869,-597,-24,-309
-0.7470000000,1.2670000000,-0.7640000000,3.0194196060,-3.7734018428,8.6865036872,-0.5201081171,0.7199483164,-2.6686084263,-596,1,-298
-0.7130000000,0.9550000000,-0.6210000000,5.3895767302,-4.3231805572,8.5852745906,-0.6072000468,0.7365289443,-2.6232298657,-594,28,-281
-0.6090000000,0.6690000000,-0.3040000000,7.6881753550,-5.2429690730,8.2798419715,-0.6993534313,0.7785913793,-2.5865779515,-592,59,-271
-0.4580000000,0.4570000000,0.0790000000,9.4544485581,-6.5798912800,7.6777033795,-0.7974409352,0.8520697408,-2.5691246589,-583,77,-258
-0.2860000000,0.3310000000,0.4260000000,10.8227866916,-8.1419609606,6.7526788760,-0.8991936306,0.9674360044,-2.5883232807,-584,97,-239
-0.1290000000,0.2520000000,0.6690000000,12.1038583626,-9.4317592778,5.7264252758,-0.9967575358,1.1442378576,-2.6651177678,-578,109,-226
0.0010000000,0.1860000000,0.7650000000,13.3273341682,-10.1787601976,4.8799405886,-1.0765190826,1.4030701857,-2.8187067420,-581,117,-210
0.1170000000,0.1400000000,0.7210000000,14.2401413670,-10.4772114997,4.1783182293,-1.1220721761,1.7435839227,-3.0455995447,-576,125,-196
0.2400000000,0.1170000000,0.5880000000,14.7445415208,-10.4807021582,3.5238197598,-1.1213740444,2.1205750412,2.9775317039,-576,132,-186
0.3690000000,0.1030000000,0.4120000000,14.9766703114,-10.3061692330,2.8972465583,-1.0768681485,2.4642303709,2.7593655474,-574,139,-176
0.4970000000,0.0720000000,0.2160000000,15.0813900665,-10.0234258942,2.3945917337,-1.0030407211,2.7422613207,2.6110125610,-573,140,-167
0.5960000000,0.0250000000,0.0210000000,14.9347824093,-9.5556776547,1.9146261894,-0.9152506597,2.9621728065,2.5254914276,-571,143,-161
0.6590000000,-0.0480000000,-0.1610000000,14.5193940473,-8.9483030750,1.2863076587,-0.8246680716,3.1391491926,2.4870941841,-569,145,-162
0.6740000000,-0.1460000000,-0.3320000000,13.8945661751,-8.3845617266,0.5619960191,-0.7375761419,-2.9979520562,2.4836035256,-573,142,-159
0.6120000000,-0.2480000000,-0.4730000000,13.1370932798,-8.0110612667,-0.1029744259,-0.6571164634,-2.8743827451,2.5010568181,-574,139,-158
0.4740000000,-0.3430000000,-0.5620000000,12.2679193123,-7.8749255850,-0.7120943348,-0.5832890360,-2.7672195290,2.5359634031,-579,135,-156
0.2920000000,-0.4310000000,-0.5900000000,11.2486470291,-7.9011055238,-1.2863076587,-0.5155702610,-2.6743680128,2.5848326222,-583,127,-144
0.1280000000,-0.5080000000,-0.5860000000,10.1124376861,-7.9360121088,-1.9408061282,-0.4543092043,-2.5944319331,2.6441738168,-585,120,-136
0.0000000000,-0.5540000000,-0.5710000000,8.8540552954,-7.9517200721,-2.5516713664,-0.4002039975,-2.5272367569,2.7122416576,-592,108,-119
-0.1000000000,-0.5510000000,-0.5520000000,7.3303828584,-7.9011055238,-3.0368728985,-0.3534291735,-2.4729570172,2.7872908154,-597,91,-96
-0.1630000000,-0.5050000000,-0.5310000000,5.5902895941,-7.7702058299,-3.4749505407,-0.3134611337,-2.4333380431,2.8658306318,-599,83,-75
-0.1720000000,-0.4450000000,-0.5110000000,3.7838738183,-7.4473199183,-3.7594392088,-0.2801253449,-2.4092524995,2.9461157774,-600,69,-52
-0.1220000000,-0.3920000000,-0.4930000000,1.8640116411,-6.8800879114,-3.7227872945,-0.2522000769,-2.4007003861,3.0264009230,-598,53,-20
-0.0240000000,-0.3300000000,-0.4690000000,-0.0925024504,-6.1959188446,-3.3649947978,-0.2277654674,-2.4082053019,3.0979594223,-595,36,3
0.0820000000,-0.2450000000,-0.4270000000,-1.9966566643,-5.5257124118,-2.8047441080,-0.2042035225,-2.4314181810,-3.1189033733,-594,20,33
0.1790000000,-0.1430000000,-0.3860000000,-3.7454765748,-4.9113565151,-2.3125612589,-0.1802925117,-2.4698154245,-3.0647981665,-589,7,51
0.2350000000,-0.0430000000,-0.3800000000,-5.1940998539,-4.3825217518,-1.9442967867,-0.1560324351,-2.5216517033,-3.0194196060,-579,-10,80
0.1910000000,0.1650000000,-0.4960000000,-6.3983770378,-4.0107666211,-1.7366026057,-0.1314232927,-2.5846580893,-2.9810223624,-572,-30,103
0.1910000000,0.1650000000,-0.4960000000,-7.4333572842,-3.7821284891,-1.6179202166,-0.1061160185,-2.6574383191,-2.9461157774,-561,-58,117
0.1330000000,0.2870000000,-0.5860000000,-8.4561202259,-3.5046211380,-1.5550883635,-0.0797615468,-2.7389451952,-2.9164451801,-553,-87,135
0.1330000000,0.5860000000,-0.8230000000,-9.4160513145,-3.0421088862,-1.4660765717,-0.0542797397,-2.8295277833,-2.8902652413,-546,-115,146
0.1860000000,0.7630000000,-0.9210000000,-10.2258840874,-2.5970499270,-1.2007865254,-0.0305432619,-2.9281388861,-2.8693212903,-537,-144,148
0.2400000000,0.9370000000,-0.9650000000,-10.8699105814,-2.3684117950,-0.7819075049,-0.0078539816,-3.0335567729,-2.8588493148,-529,-182,152
0.2510000000,1.0940000000,-0.9610000000,-11.3184601992,-2.3841197582,-0.2967059728,0.0150098316,3.1386255939,-2.8518679978,-521,-212,144
0.2010000000,1.2310000000,-0.9430000000,-11.5924768917,-2.5638886712,0.0610865238,0.0396189740,3.0243065279,-2.8518679978,-513,-253,142
0.0970000000,1.3580000000,-0.9390000000,-11.7513018537,-2.7698375229,0.2443460953,0.0654498469,2.9075440009,-2.8588493148,-509,-279,132
-0.0270000000,1.4930000000,-0.9570000000,-11.9432880714,-2.8763026073,0.3071779484,0.0916297857,2.7886870788,-2.8728119488,-503,-309,117
-0.1360000000,1.6510000000,-0.9960000000,-12.2644286538,-2.8099800957,0.2827433388,0.1165879940,2.6665140312,-2.8867745828,-495,-341,93
-0.2010000000,1.8250000000,-1.0480000000,-12.6745810280,-2.5499260372,0.1151917306,0.1387536755,2.5403267263,-2.9024825461,-485,-364,72
-0.2180000000,1.9970000000,-1.0910000000,-13.0690254389,-2.2008601868,-0.0523598776,0.1572541656,2.4097760982,-2.9181905093,-481,-396,32
-0.1920000000,2.1490000000,-1.1040000000,-13.4041286553,-1.8587756534,-0.1448623279,0.1722639972,2.2755602788,-2.9338984726,-478,-413,10
-0.1390000000,2.2960000000,-1.0910000000,-13.7374865424,-1.4800392057,-0.1762782545,0.1836086373,2.1378538008,-2.9461157774,-476,-435,-33
-0.0600000000,2.4430000000,-1.0720000000,-14.0464098201,-0.9372418083,-0.1989675347,0.1912880860,1.9973547960,-2.9565877529,-472,-448,-75
0.0490000000,2.5710000000,-1.0520000000,-14.2226880745,-0.2670353756,-0.2007128640,0.1954768762,1.8552849949,-2.9618237406,-470,-447,-131
0.1700000000,2.6600000000,-1.0000000000,-14.2017441235,0.2600540585,-0.0820304748,0.1972222055,1.7133897267,-2.9618237406,-468,-453,-196
0.2800000000,2.7160000000,-0.8860000000,-13.9504167112,0.3228859116,0.2076941810,0.1966986067,1.5730652548,-2.9583330821,-466,-447,-234
0.3610000000,2.7600000000,-0.7230000000,-13.3203528512,-0.0261799388,0.6318091892,0.1930334153,1.4367550402,-2.9565877529,-466,-426,-284
0.3660000000,2.8260000000,-0.5340000000,-12.2661739830,-0.7958701389,1.4364059744,0.1829105056,1.3081242744,-2.9565877529,-473,-404,-316
0.2850000000,2.9360000000,-0.3170000000,-10.9170344712,-2.0594885174,2.7366762671,0.1598721595,1.1904890828,-2.9618237406,-482,-371,-342
0.1450000000,3.0650000000,-0.1120000000,-9.4038340097,-3.5395277230,4.4540802511,0.1167625270,1.0868165252,-2.9722957161,-503,-333,-364
-0.0130000000,3.1560000000,-0.0070000000,-7.8504909755,-4.6792277246,6.2954026119,0.0506145483,0.9992009968,-2.9810223624,-520,-300,-360
-0.1890000000,3.1360000000,-0.0830000000,-6.4420102691,-5.1050880621,8.1332343143,-0.0356047167,0.9272934316,-2.9792770332,-548,-251,-350
-0.4300000000,2.9890000000,-0.3310000000,-5.1103240498,-4.9689523804,9.7598811772,-0.1366592804,0.8672541053,-2.9635690699,-570,-206,-334
-0.7470000000,2.7090000000,-0.6710000000,-3.6442474782,-4.5029494701,10.8123147161,-0.2448696941,0.8162904912,-2.9304078141,-591,-153,-313
-1.0680000000,2.3260000000,-0.9980000000,-2.0036379813,-4.0840704497,11.3306775039,-0.3537782394,0.7724827269,-2.8815385950,-607,-92,-292
-1.2960000000,1.8840000000,-1.2110000000,-0.0680678408,-3.8624136347,11.5017197706,-0.4607669225,0.7363544114,-2.8204520712,-606,-48,-277
-1.3630000000,1.4120000000,-1.2180000000,2.1013764194,-3.9008108782,11.4022360033,-0.5654866776,0.7113962031,-2.7506389011,-611,0,-261
-1.2700000000,0.9520000000,-0.9920000000,4.2394047531,-4.1922808633,10.8891092032,-0.6684611035,0.6998770300,-2.6773350726,-598,45,-240
-1.0760000000,0.5480000000,-0.5940000000,6.2971479412,-4.9340457954,9.7982784207,-0.7698647331,0.7072074129,-2.6110125610,-590,81,-232
-0.8420000000,0.2180000000,-0.1390000000,8.1105450340,-5.9934606513,8.4055056776,-0.8709192967,0.7431611955,-2.5621433419,-577,120,-217
-0.5930000000,-0.0360000000,0.2600000000,9.6534160928,-7.2256631033,6.9621183862,-0.9714502617,0.8196066167,-2.5464353787,-569,137,-210
-0.3630000000,-0.1990000000,0.5500000000,10.8192960331,-8.4980081280,5.4960418145,-1.0693632327,0.9553932325,-2.5865779515,-566,153,-203
-0.1770000000,-0.2810000000,0.7130000000,11.8246056823,-9.5591683132,4.2446407409,-1.1555824977,1.1796680414,-2.7104963283,-559,161,-198
-0.0300000000,-0.3090000000,0.7370000000,12.7548661736,-10.2520640262,3.3649947978,-1.2147491594,1.5193091139,-2.9443704481,-556,167,-188
0.0850000000,-0.2850000000,0.6420000000,13.4268179356,-10.7285389120,2.7052603406,-1.2281881946,1.9476129123,3.0194196060,-552,175,-179
0.1910000000,-0.2300000000,0.4730000000,13.9259821017,-11.0810954209,2.1589722847,-1.1882201548,2.3602087475,2.7262042916,-551,177,-170
0.2940000000,-0.1820000000,0.2650000000,14.3588237562,-11.1858151760,1.6318828506,-1.1088076738,2.6803021323,2.5289820861,-552,179,-168
0.3830000000,-0.1690000000,0.0320000000,14.6852003263,-11.0671327869,1.0890854532,-1.0086257747,2.9157470484,2.4260076603,-553,179,-164
0.4350000000,-0.1920000000,-0.2090000000,14.6817096678,-10.7459922045,0.4590215933,-0.9018116245,3.0951668955,2.3858650875,-557,177,-158
0.4380000000,-0.2460000000,-0.4370000000,14.2994825616,-10.1735242099,-0.2111848395,-0.7970918694,-3.0438542155,2.3876104167,-557,168,-160
0.4020000000,-0.3310000000,-0.6290000000,13.6118228363,-9.5050631064,-0.9005898940,-0.7007496947,-2.9229028983,2.4155356848,-560,161,-155
0.3350000000,-0.4330000000,-0.7630000000,12.7251955763,-8.8784899049,-1.5795229731,-0.6154030943,-2.8187067420,2.4626595746,-567,153,-153
0.2310000000,-0.5220000000,-0.8250000000,11.6221474890,-8.3671084341,-2.1397736629,-0.5417501998,-2.7277750879,2.5202554399,-572,141,-147
0.0860000000,-0.5700000000,-0.8140000000,10.3445664766,-8.0616758150,-2.6075219025,-0.4783947480,-2.6492352716,2.5848326222,-578,127,-140
-0.0680000000,-0.5840000000,-0.7420000000,9.0582588179,-8.0285145592,-3.0805061298,-0.4232423436,-2.5830872930,2.6563911215,-589,115,-120
-0.1910000000,-0.5870000000,-0.6440000000,7.7859137931,-8.1175263510,-3.6075955639,-0.3745476575,-2.5286330203,2.7349309379,-593,109,-105
-0.2840000000,-0.5680000000,-0.5640000000,6.3460171603,-8.1210170095,-4.0962877544,-0.3319616237,-2.4862215195,2.8187067420,-598,91,-85
-0.3580000000,-0.5080000000,-0.5120000000,4.6757370661,-7.9796453401,-4.5273840797,-0.2954842424,-2.4572490539,2.9077185338,-599,71,-55
-0.3890000000,-0.4210000000,-0.4820000000,2.8309240467,-7.6532687700,-4.8520153205,-0.2649409805,-2.4434609528,2.9967303257,-600,55,-28
-0.3260000000,-0.1890000000,-0.4430000000,0.8517206750,-7.1139620311,-4.9165925029,-0.2396337063,-2.4459044137,3.0839967883,-601,27,6
-0.3260000000,-0.1890000000,-0.4430000000,-1.1920598791,-6.4420102691,-4.7717301750,-0.2178170906,-2.4654521014,-3.1136673856,-597,9,31
-0.2570000000,-0.0460000000,-0.4260000000,-3.1223940318,-5.7560958731,-4.5064401286,-0.1980948701,-2.5017549498,-3.0386182277,-592,-15,59
-0.0360000000,0.2500000000,-0.4340000000,-4.9218284906,-5.1591932689,-4.2097341558,-0.1785471825,-2.5539402944,-2.9705503869,-582,-43,85
0.0980000000,0.4270000000,-0.4740000000,-6.5641833168,-4.6844637124,-3.8606683054,-0.1579522973,-2.6209609377,-2.9077185338,-574,-74,103
0.2390000000,0.6250000000,-0.5390000000,-7.9395027673,-4.1730822415,-3.4243359924,-0.1356120829,-2.7008970175,-2.8553586563,-559,-111,123
0.3700000000,0.8370000000,-0.6180000000,-9.0914200736,-3.7070793312,-2.7855454862,-0.1115265392,-2.7909560069,-2.8099800957,-548,-136,138
0.4620000000,1.0560000000,-0.6860000000,-10.0635684670,-3.4836771870,-2.0088739690,-0.0846484687,-2.8895671096,-2.7768188399,-536,-177,145
0.4760000000,1.2660000000,-0.7340000000,-10.7390108875,-3.5377823938,-1.2514010737,-0.0539306739,-2.9949849964,-2.7523842304,-525,-209,145
0.3930000000,1.4620000000,-0.7660000000,-11.1299646400,-3.8519416592,-0.6492624817,-0.0179768913,-3.1063370027,-2.7436575841,-517,-242,140
0.2390000000,1.6550000000,-0.7910000000,-11.3394041502,-4.3249258864,-0.2251474735,0.0218166156,3.0661944299,-2.7401669256,-496,-284,135
0.0540000000,1.8640000000,-0.8250000000,-11.5313903679,-4.7263516144,0.1204277184,0.0664970445,2.9518753639,-2.7454029134,-484,-307,126
-0.1290000000,2.0980000000,-0.8670000000,-11.8472949625,-5.0021136362,0.4625122518,0.1129228026,2.8342401723,-2.7593655474,-474,-338,112
-0.2780000000,2.3590000000,-0.9120000000,-12.3482044579,-5.0981067451,0.7906341512,0.1577777644,2.7106708613,-2.7890361447,-463,-367,98
-0.3740000000,2.6450000000,-0.9680000000,-13.0568081342,-4.9567350757,1.1030480873,0.1977458043,2.5785494369,-2.8204520712,-449,-394,77
-0.4280000000,2.9320000000,-1.0380000000,-13.7811197737,-4.6041785668,1.4573499254,0.2288126649,2.4364796358,-2.8605946440,-448,-424,40
-0.4550000000,3.1880000000,-1.1230000000,-14.3221718419,-4.1608649368,1.8186330806,0.2487094184,2.2858577213,-2.9042278753,-447,-440,14
-0.4590000000,3.3810000000,-1.2150000000,-14.5036860841,-3.7123153190,2.1013764194,0.2565634000,2.1305234179,-2.9478611066,-448,-455,-22
-0.4640000000,3.5180000000,-1.2910000000,-14.3692957317,-3.4208453339,2.3544491609,0.2535963403,1.9751891145,-2.9932396672,-454,-463,-67
-0.4530000000,3.6000000000,-1.3290000000,-13.8806035411,-3.3388148591,2.7017696821,0.2408554368,1.8235200025,-3.0351275692,-456,-458,-112
-0.3960000000,3.6460000000,-1.3290000000,-13.1964344743,-3.3876840781,3.1468286413,0.2181661565,1.6781340758,-3.0735248128,-469,-456,-159
-0.3090000000,3.6880000000,-1.3380000000,-12.3935830184,-3.2847096523,3.6686820877,0.1862266312,1.5437437234,-3.1084313978,-480,-445,-176
-0.2070000000,3.7060000000,-1.3620000000,-11.5052104291,-3.1189033733,4.4104470198,0.1438151304,1.4191272148,-3.1363566658,-493,-424,-210
-0.1670000000,3.7060000000,-1.3710000000,-10.4754661705,-2.9688050576,5.6810467152,0.0895353906,1.3065534780,3.1258846903,-512,-394,-234
-0.2380000000,3.6950000000,-1.3680000000,-9.3602007784,-2.9653143991,7.6462874530,0.0185004901,1.2063715790,3.1171580441,-535,-357,-246
-0.3700000000,3.5880000000,-1.3880000000,-8.0075706082,-2.9129545216,9.7598811772,-0.0719075652,1.1184069847,3.1258846903,-567,-304,-257
-0.5960000000,3.3600000000,-1.4740000000,-6.4507369154,-2.7558748889,11.3289321747,-0.1778490508,1.0419615634,-3.1311206781,-586,-260,-256
-0.9480000000,3.0290000000,-1.5970000000,-4.4750242021,-2.5970499270,12.2033421299,-0.2914699851,0.9765117165,-3.0909781053,-607,-199,-246
-1.3250000000,2.6090000000,-1.6830000000,-2.1013764194,-2.5761059759,12.3953283477,-0.4066617157,0.9234537072,-3.0351275692,-617,-134,-232
-1.5870000000,2.1020000000,-1.6450000000,0.7749261879,-2.8326693760,11.9921572905,-0.5192354525,0.8876744576,-2.9740410454,-626,-81,-216
-1.6730000000,1.5460000000,-1.4270000000,3.7018433435,-3.3178709080,11.2469016999,-0.6284930636,0.8754571528,-2.9146998508,-624,-22,-202
-1.5800000000,1.0000000000,-1.0480000000,6.6217791821,-4.1085050592,9.9763020044,-0.7340854834,0.8936085770,-2.8623399733,-620,12,-191
-1.3710000000,0.5100000000,-0.6150000000,9.0547681593,-5.1120693791,8.6044732123,-0.8358381788,0.9510299094,-2.8344147052,-609,51,-176
-1.1000000000,0.1240000000,-0.2310000000,11.0147729093,-5.9236474813,7.3024575903,-0.9327039523,1.0543534011,-2.8379053637,-602,80,-171
-0.7930000000,-0.1240000000,0.0500000000,12.4860854688,-6.4193209888,5.9602993956,-1.0190977502,1.2121311655,-2.8867745828,-592,102,-166
-0.4890000000,-0.2360000000,0.2290000000,13.3255888390,-6.6549404379,4.7507862239,-1.0875146569,1.4283774598,-2.9880036794,-582,122,-162
-0.2210000000,-0.2310000000,0.3280000000,13.8177716880,-6.7963121073,3.7734018428,-1.1309733553,1.6982053622,-3.1381019951,-573,134,-160
0.0000000000,-0.1590000000,0.3600000000,14.0708444296,-6.8573986311,2.9321531434,-1.1449359893,1.9994491911,2.9653143991,-570,141,-166
0.1820000000,-0.0570000000,0.3280000000,14.1755641847,-6.8312186923,2.2183134793,-1.1294025590,2.2949334334,2.7960174617,-563,147,-176
0.3300000000,0.0480000000,0.2470000000,14.2157067575,-6.7195176202,1.6563174601,-1.0911798483,2.5560346895,2.6616271093,-565,145,-179
0.4310000000,0.1330000000,0.1370000000,14.1005150269,-6.5065874514,1.1170107213,-1.0388199708,2.7750735107,2.5743606467,-566,147,-190
0.4770000000,0.1720000000,0.0320000000,13.8055543833,-6.3582344650,0.5672320069,-0.9794787762,2.9557150883,2.5254914276,-566,144,-197
0.4940000000,0.1530000000,-0.0370000000,13.3709673995,-6.3303091970,0.0401425728,-0.9171705219,3.1059879368,2.5045474766,-566,132,-199
0.4830000000,0.0890000000,-0.0870000000,12.7967540756,-6.2395520759,-0.4572762640,-0.8543386689,-3.0504864666,2.5115287936,-575,121,-203
0.4380000000,-0.0070000000,-0.1340000000,12.0200825585,-6.0248765779,-0.9581857593,-0.7946484084,-2.9427996518,2.5342180739,-582,107,-204
0.3610000000,-0.1160000000,-0.1740000000,11.1177473352,-5.8695422745,-1.4940018397,-0.7401941358,-2.8518679978,2.5708699882,-590,93,-199
0.2700000000,-0.2050000000,-0.1870000000,10.2799892942,-6.0894537602,-2.0856684561,-0.6899286533,-2.7757716424,2.6179938780,-595,76,-198
0.1700000000,-0.2620000000,-0.1750000000,9.5958202275,-6.5554566705,-2.6110125610,-0.6410594343,-2.7120671247,2.6755897433,-605,58,-181
0.0660000000,-0.2850000000,-0.1700000000,8.7022116504,-6.9254664719,-3.0246555937,-0.5930628798,-2.6588345825,2.7419122549,-610,41,-165
-0.0090000000,-0.2780000000,-0.1780000000,7.5345863809,-7.1558499332,-3.4749505407,-0.5471607205,-2.6169466804,2.8169614127,-616,27,-144
-0.0360000000,-0.2240000000,-0.1850000000,6.1261056745,-7.2658056761,-3.8484510006,-0.5040510880,-2.5874506161,2.8955012291,-622,7,-117
-0.0120000000,-0.1320000000,-0.1990000000,4.6355944933,-7.1314153236,-4.0212385966,-0.4640830481,-2.5706954553,2.9775317039,-624,-2,-90
0.0640000000,-0.0470000000,-0.2340000000,3.1311206781,-6.7282442664,-3.9426987803,-0.4274311338,-2.5652849346,3.0560715202,-622,-20,-64
0.1730000000,0.0110000000,-0.2610000000,1.5987215948,-6.3756877575,-3.6390114904,-0.3933972134,-2.5703463894,3.1293753488,-622,-37,-31
0.2610000000,0.0450000000,-0.2410000000,-0.0122173048,-6.2639866854,-3.0717794835,-0.3583160954,-2.5862288856,-3.0874874468,-614,-53,-5
0.2990000000,0.0630000000,-0.1730000000,-1.5917402778,-6.2465333929,-2.4678955623,-0.3192207202,-2.6132814890,-3.0281462522,-607,-71,27
0.2760000000,0.0760000000,-0.1130000000,-3.1503192998,-6.1243603452,-2.0280725908,-0.2761110877,-2.6515041996,-2.9757863747,-598,-81,46
0.1870000000,0.1150000000,-0.1080000000,-4.7472955654,-5.8154370676,-1.7889624833,-0.2312561259,-2.7015951492,-2.9304078141,-584,-98,75
0.0550000000,0.1950000000,-0.1700000000,-6.4001223671,-5.3721234376,-1.8291050561,-0.1869247629,-2.7646015352,-2.8902652413,-573,-118,98
-0.0570000000,0.3140000000,-0.2830000000,-8.0546944980,-4.8136180770,-2.0612338466,-0.1450368608,-2.8419196210,-2.8553586563,-561,-146,116
-0.1230000000,0.4930000000,-0.4160000000,-9.5818575934,-4.2446407409,-2.1956241990,-0.1064650844,-2.9332003409,-2.8221974005,-544,-183,127
-0.0660000000,1.0650000000,-0.6400000000,-10.8908545324,-3.7611845380,-2.2165681500,-0.0703367689,-3.0375710302,-2.7942721324,-534,-213,128
-0.0660000000,1.0650000000,-0.6400000000,-11.7914444265,-3.4819318577,-1.9809487010,-0.0352556509,3.1309461452,-2.7715828522,-519,-248,126
0.0190000000,1.3830000000,-0.6900000000,-12.2818819463,-3.5639623326,-1.4311699866,0.0003490659,3.0105184268,-2.7558748889,-508,-288,113
0.0710000000,1.6720000000,-0.6880000000,-12.4407069082,-3.9810960238,-0.7836528341,0.0390953752,2.8869491157,-2.7523842304,-497,-322,99
-0.1050000000,2.1280000000,-0.6200000000,-12.3429684701,-4.5937065912,-0.2687807048,0.0808087444,2.7625071401,-2.7593655474,-480,-361,82
-0.3220000000,2.3160000000,-0.6100000000,-12.1440009354,-5.2272611097,-0.0226892803,0.1254891732,2.6382396973,-2.7820548277,-474,-382,64
-0.5520000000,2.5010000000,-0.6380000000,-12.0689517775,-5.6758107275,0.0104719755,0.1713913325,2.5130995899,-2.8117254250,-461,-408,46
-0.7300000000,2.6800000000,-0.7050000000,-12.1282929721,-5.8154370676,-0.0453785606,0.2157226955,2.3851669558,-2.8501226685,-453,-431,26
-0.8070000000,2.8610000000,-0.7940000000,-12.3377324823,-5.6566121057,-0.0558505361,0.2553416696,2.2532200643,-2.8920105706,-442,-449,3
-0.7600000000,3.0520000000,-0.8780000000,-12.6396744429,-5.3005649383,0.0925024504,0.2871066620,2.1162117180,-2.9408797896,-433,-469,-35
-0.5970000000,3.2570000000,-0.9550000000,-12.8526046117,-4.7891834675,0.5235987756,0.3080506130,1.9748400486,-2.9880036794,-430,-476,-62
-0.3860000000,3.4950000000,-1.0240000000,-12.8089713804,-4.1870448755,1.2863076587,0.3148573971,1.8305013195,-3.0368728985,-427,-484,-100
-0.2090000000,3.7310000000,-1.0670000000,-12.5489173218,-3.7297686115,2.2235494670,0.3057816849,1.6915731110,-3.0805061298,-436,-482,-141
-0.0840000000,3.9230000000,-1.0790000000,-12.2452300320,-3.4819318577,3.1991885189,0.2811725425,1.5561355611,-3.1189033733,-447,-477,-180
-0.0510000000,4.0660000000,-1.0840000000,-11.6448367693,-3.4138640169,4.3598324715,0.2419026343,1.4280283940,3.1293753488,-464,-455,-219
-0.1080000000,4.1220000000,-1.0890000000,-10.6499990957,-3.6058502346,5.8939768840,0.1855284995,1.3105677353,3.1049407393,-482,-427,-234
-0.1880000000,4.0410000000,-1.1460000000,-9.1437799512,-3.7262779530,7.6096355387,0.1113520063,1.2082914412,3.0909781053,-509,-394,-254
-0.3460000000,3.8650000000,-1.2370000000,-7.2204271155,-3.8781215979,9.5190257404,0.0186750230,1.1253883017,3.0927234345,-537,-350,-261
-0.6150000000,3.6180000000,-1.3360000000,-5.2586770363,-3.8501963299,11.0269902141,-0.0897099236,1.0616837840,3.1049407393,-569,-301,-254
-0.9870000000,3.3090000000,-1.4690000000,-3.3440508468,-3.4138640169,11.8769655598,-0.2069960493,1.0135126966,3.1311206781,-595,-240,-246
-1.3650000000,2.9270000000,-1.6000000000,-1.2863076587,-2.8169614127,12.0968770456,-0.3246312409,0.9784315787,-3.1101767271,-613,-193,-232
-1.6210000000,2.4770000000,-1.6130000000,0.9965830029,-2.4905848426,11.8368229870,-0.4382521752,0.9569640289,-3.0595621787,-625,-136,-223
-1.7050000000,1.9790000000,-1.4250000000,3.6896260387,-2.8605946440,11.0566608114,-0.5471607205,0.9539969691,-3.0072023012,-629,-88,-208
-1.6430000000,1.4540000000,-1.0600000000,6.3756877575,-3.7105699897,10.0216805650,-0.6524040744,0.9803514408,-2.9670597284,-627,-42,-191
-1.4510000000,0.9480000000,-0.5910000000,8.6097092001,-4.7752208335,8.8627819416,-0.7548549015,1.0414379647,-2.9461157774,-624,8,-173
-1.1460000000,0.5100000000,-0.1620000000,10.4440502439,-5.6967546785,7.5956729047,-0.8522442737,1.1445869235,-2.9583330821,-619,36,-161
-0.8060000000,0.1800000000,0.1160000000,11.8141337067,-6.1871921983,6.4577182324,-0.9388126046,1.2948597721,-3.0089476304,-611,64,-147
-0.4830000000,-0.0370000000,0.2420000000,12.6833076742,-6.2308254296,5.2883476335,-1.0082767089,1.4915583788,-3.0979594223,-604,88,-142
-0.1970000000,-0.1520000000,0.2540000000,13.0934600485,-5.9515727493,4.0596358401,-1.0533062036,1.7252579656,3.0613075080,-595,102,-143
0.0090000000,-0.1790000000,0.2090000000,13.2191237546,-5.6635934227,2.8239427297,-1.0709340290,1.9736183182,2.9269171556,-583,122,-141
0.1410000000,-0.1470000000,0.1570000000,13.2592663274,-5.6007615696,1.7645278738,-1.0630800474,2.2151718866,2.8029987787,-581,128,-143
0.2090000000,-0.0860000000,0.1010000000,13.1859624988,-5.6217055207,0.8726646260,-1.0348057135,2.4342107078,2.7017696821,-577,130,-151
0.2400000000,-0.0270000000,0.0290000000,12.9503430498,-5.6827920445,0.0820304748,-0.9915215481,2.6235789316,2.6337018413,-581,129,-157
0.2510000000,0.0060000000,-0.0570000000,12.5855692361,-5.6915186908,-0.6789330790,-0.9391616705,2.7827529594,2.5953045977,-585,124,-159
0.2440000000,0.0040000000,-0.1570000000,12.0078652537,-5.4367006200,-1.4782938764,-0.8826130027,2.9141762521,2.5848326222,-586,112,-167
0.2160000000,-0.0310000000,-0.2600000000,11.1456726032,-4.9846603437,-2.2689280276,-0.8281587301,3.0201177377,2.5987952562,-589,101,-166
0.1680000000,-0.0900000000,-0.3380000000,10.1246549908,-4.6286131763,-2.9112091923,-0.7782423135,3.1042426076,2.6302111828,-601,88,-167
0.1080000000,-0.1560000000,-0.3670000000,9.0809480981,-4.4191736660,-3.4854225162,-0.7330382858,-3.1119220563,2.6738444141,-604,68,-158
0.0240000000,-0.2080000000,-0.3570000000,8.0704024612,-4.2516220579,-3.9845866823,-0.6918485155,-3.0599112446,2.7262042916,-615,46,-155
-0.0850000000,-0.2250000000,-0.3420000000,6.9656090447,-4.0648718279,-4.5029494701,-0.6548475353,-3.0208158694,2.7838001569,-618,24,-146
-0.1990000000,-0.1840000000,-0.3270000000,5.6059975574,-3.9723693775,-5.0946160866,-0.6215117466,-2.9962067269,2.8501226685,-626,6,-134
-0.2860000000,-0.0790000000,-0.2940000000,4.0404372184,-3.9025562075,-5.7578412023,-0.5906194189,-2.9880036794,2.9216811678,-629,-23,-124
-0.3230000000,0.0680000000,-0.2380000000,2.4137903555,-3.6983526850,-6.3739424283,-0.5618214862,-2.9974284574,3.0002209842,-629,-47,-107
-0.3030000000,0.2390000000,-0.1610000000,0.9232791743,-3.4697145530,-6.8190013875,-0.5351179487,-3.0230847974,3.0822514590,-629,-77,-89
-0.2450000000,0.4010000000,-0.0570000000,-0.2949606436,-3.3999013829,-6.8364546801,-0.5078908123,-3.0606093763,-3.1171580441,-630,-118,-72
-0.1700000000,0.5260000000,0.0590000000,-1.3037609512,-3.5116024550,-6.4786621834,-0.4776966163,-3.1052898051,-3.0386182277,-624,-145,-64
-0.1130000000,0.6050000000,0.1570000000,-2.0367992371,-3.8379790251,-5.9829886758,-0.4420918995,3.1298989476,-2.9688050576,-619,-176,-49
-0.1090000000,0.6430000000,0.2140000000,-2.5446900494,-4.3144539109,-5.5606189969,-0.3998549316,3.0819023932,-2.9077185338,-608,-203,-33
-0.1750000000,0.6650000000,0.2260000000,-3.0665434958,-4.9043751981,-5.3407075111,-0.3497639821,3.0344294375,-2.8536133270,-592,-231,-16
-0.2890000000,0.7080000000,0.1930000000,-3.9235001585,-5.4646258880,-5.4017940349,-0.2916445180,2.9848620868,-2.8047441080,-574,-267,5
-0.4010000000,0.8180000000,0.1200000000,-5.1679199152,-5.6862827030,-5.7264252758,-0.2265437369,2.9286624848,-2.7593655474,-561,-291,16
-0.4590000000,1.0170000000,0.0110000000,-6.5694193045,-5.4367006200,-6.1854468691,-0.1577777644,2.8623399733,-2.7139869869,-537,-323,23
-0.3350000000,1.6360000000,-0.1990000000,-7.9325214503,-4.9584804049,-6.4943701467,-0.0884881931,2.7850218874,-2.6703537556,-516,-360,23
-0.3350000000,1.6360000000,-0.1990000000,-8.9971722940,-4.4558255803,-6.4263023058,-0.0197222205,2.6984535565,-2.6284658535,-491,-396,14
-0.1930000000,1.9700000000,-0.2260000000,-9.6010562152,-4.1887902048,-5.9027035302,0.0471238898,2.6059511062,-2.5935592685,-456,-437,-3
-0.0980000000,2.2520000000,-0.1980000000,-9.8262036887,-4.4261549831,-4.9741883682,0.1127482697,2.5104815961,-2.5708699882,-435,-458,-25
-0.2540000000,2.6230000000,-0.1030000000,-9.6534160928,-5.1085787206,-3.9671333898,0.1774999849,2.4136158226,-2.5656340004,-415,-480,-50
-0.4540000000,2.7410000000,-0.1250000000,-9.1420346219,-5.9358647860,-3.1852258849,0.2413790356,2.3165755162,-2.5795966344,-395,-502,-70
-0.6610000000,2.8580000000,-0.2090000000,-8.5835292613,-6.7073003154,-2.6581364508,0.3042108886,2.2195352098,-2.6092672317,-378,-512,-92
-0.8230000000,2.9900000000,-0.3290000000,-8.1245076680,-7.2710416638,-2.1973695283,0.3637266161,2.1207495741,-2.6563911215,-360,-526,-115
-0.9090000000,3.1410000000,-0.4570000000,-7.9133228285,-7.5625116489,-1.5917402778,0.4160864937,2.0179496812,-2.7174776454,-353,-532,-128
-0.9090000000,3.2980000000,-0.5730000000,-7.8435096585,-7.5136424298,-0.7400196028,0.4564035994,1.9088666029,-2.7890361447,-347,-534,-147
-0.8370000000,3.4520000000,-0.6520000000,-7.8696895972,-7.2431163958,0.2687807048,0.4796164784,1.7948966028,-2.8675759610,-350,-536,-167
-0.7190000000,3.6010000000,-0.7130000000,-7.9691733646,-6.7247536079,1.2514010737,0.4843288674,1.6790067404,-2.9461157774,-351,-532,-190
-0.5910000000,3.7290000000,-0.7760000000,-8.0180425837,-5.9498274200,2.4137903555,0.4701917005,1.5657348720,-3.0194196060,-362,-523,-216
-0.4680000000,3.7880000000,-0.8240000000,-7.9045961823,-5.2988196091,3.8187804034,0.4366813788,1.4594443205,-3.0787608005,-374,-515,-236
-0.3880000000,3.7610000000,-0.8580000000,-7.4333572842,-4.9148471736,5.2482050607,0.3844960342,1.3634512117,-3.1258846903,-399,-495,-254
-0.3930000000,3.6840000000,-0.8930000000,-6.7195176202,-4.6198865300,6.5781459508,0.3162536605,1.2805480722,3.1206487026,-430,-473,-266
-0.4790000000,3.5770000000,-0.9080000000,-5.8328903602,-4.5518186892,7.9918626449,0.2335250539,1.2116075667,3.0997047515,-462,-444,-274
-0.6260000000,3.4400000000,-0.9180000000,-4.7246062851,-4.4977134824,9.4998271186,0.1364847475,1.1564551624,3.0927234345,-505,-397,-276
-0.8420000000,3.2710000000,-0.9610000000,-3.5796702958,-4.1556289490,10.9484503978,0.0260054059,1.1145672603,3.0962140930,-533,-362,-268
-1.1170000000,3.0360000000,-1.0400000000,-2.3858650875,-3.6145768809,11.8909281938,-0.0932005821,1.0833258667,3.1136673856,-568,-308,-260
-1.3980000000,2.7260000000,-1.1260000000,-1.0716321607,-2.9880036794,12.2295220687,-0.2150245638,1.0608111194,-3.1398473243,-598,-253,-242
-1.5980000000,2.3500000000,-1.1760000000,0.3246312409,-2.4696408916,12.0514984850,-0.3347541505,1.0458012878,-3.1014500808,-616,-196,-229
-1.6670000000,1.9160000000,-1.1370000000,1.8657569704,-2.1502456385,11.5017197706,-0.4476769531,1.0396926354,-3.0578168495,-629,-132,-215
-1.6100000000,1.4660000000,-0.9720000000,3.4173546754,-2.2340214426,11.1090206889,-0.5560618997,1.0440559585,-3.0141836182,-631,-91,-205
-1.4310000000,1.0470000000,-0.7120000000,5.0300389042,-2.4277529895,10.6447631079,-0.6620033853,1.0616837840,-2.9722957161,-633,-43,-189
-1.1560000000,0.6660000000,-0.4100000000,6.5205500855,-3.0229102645,9.8314396765,-0.7651523441,1.0969394349,-2.9391344604,-628,-1,-184
-0.8670000000,0.3410000000,-0.1230000000,7.7946404394,-3.9235001585,8.8418379906,-0.8642870456,1.1580259587,-2.9251718263,-620,40,-172
-0.6070000000,0.0900000000,0.1070000000,8.9762283430,-4.9253191491,7.7073739768,-0.9576621606,1.2554153310,-2.9443704481,-605,83,-164
-0.3940000000,-0.0930000000,0.2630000000,10.1019657105,-5.8660516160,6.4769168542,-1.0396926354,1.4044664491,-3.0072023012,-597,106,-157
-0.2440000000,-0.2240000000,0.3420000000,11.0776047624,-6.6828657059,5.2237704512,-1.1025244885,1.6172220849,-3.1293753488,-583,130,-151
-0.1430000000,-0.3210000000,0.3500000000,11.8246056823,-7.4368479427,3.9182641707,-1.1353366784,1.8905406458,2.9740410454,-579,142,-146
-0.0700000000,-0.3810000000,0.3160000000,12.3307511653,-8.2431900572,2.5307274154,-1.1294025590,2.1912608759,2.7768188399,-570,154,-144
-0.0370000000,-0.3970000000,0.2480000000,12.6134945042,-8.8243846981,1.1885692206,-1.0847221301,2.4658011672,2.6092672317,-566,163,-140
-0.0440000000,-0.3800000000,0.1410000000,12.6885436620,-9.1751958777,-0.0663225116,-1.0122909662,2.6850145213,2.5010568181,-566,160,-136
-0.0750000000,-0.3530000000,0.0010000000,12.4913214565,-9.3270395227,-1.2601277199,-0.9241518389,2.8518679978,2.4521875991,-568,158,-131
-0.1150000000,-0.3280000000,-0.1560000000,12.0096105830,-9.3724180832,-2.3788837705,-0.8293804605,2.9791025002,2.4469516113,-573,150,-124
-0.1780000000,-0.3030000000,-0.3100000000,11.2922802604,-9.2101024628,-3.3527774931,-0.7339109505,3.0785862676,2.4713862208,-579,136,-112
-0.2750000000,-0.2750000000,-0.4450000000,10.3114052208,-8.8976885267,-4.1905355340,-0.6426302306,-3.1246629598,2.5167647814,-586,120,-98
-0.3920000000,-0.2360000000,-0.5630000000,8.9465577457,-8.4735735184,-4.8851765763,-0.5579817619,-3.0611329751,2.5778513052,-588,112,-84
-0.5100000000,-0.1570000000,-0.6610000000,7.1994831645,-7.9621920476,-5.4977871438,-0.4815363406,-3.0136600194,2.6459191460,-596,89,-64
-0.5750000000,-0.0240000000,-0.7420000000,5.3965580472,-7.2919856148,-6.2151174664,-0.4141666315,-2.9827676917,2.7227136331,-598,71,-42
-0.5550000000,0.1190000000,-0.8040000000,3.7507125625,-6.3320545262,-6.8277280338,-0.3572688979,-2.9670597284,2.8029987787,-600,47,-19
-0.4610000000,0.2580000000,-0.8150000000,2.2200588085,-5.2604223655,-7.1122167019,-0.3118903373,-2.9639181357,2.8867745828,-606,9,5
-0.3270000000,0.3850000000,-0.7490000000,0.8744099552,-4.3755404347,-6.9917889835,-0.2766346864,-2.9715975844,2.9688050576,-609,-13,19
-0.2060000000,0.4850000000,-0.6130000000,-0.3316125579,-3.7943457938,-6.5990899018,-0.2474876879,-2.9881782123,3.0455995447,-607,-43,38
-0.1450000000,0.5600000000,-0.4420000000,-1.4573499254,-3.6355208319,-6.1138883697,-0.2200860187,-3.0129618877,3.1154127148,-600,-72,51
-0.1690000000,0.6210000000,-0.2720000000,-2.4958208304,-3.8676496224,-5.7124626418,-0.1898918226,-3.0454250118,-3.1014500808,-595,-101,70
-0.2600000000,0.6930000000,-0.1490000000,-3.4854225162,-4.2376594238,-5.5309483996,-0.1539380400,-3.0850439858,-3.0421088862,-579,-139,87
-0.3420000000,0.7720000000,-0.1120000000,-4.5518186892,-4.4331363001,-5.6304321669,-0.1125737368,-3.1319933427,-2.9845130209,-568,-167,101
-0.3500000000,0.8800000000,-0.1660000000,-5.9079395180,-4.3406338497,-5.9009582010,-0.0673697091,3.0944687638,-2.9286624848,-551,-203,112
-0.2750000000,1.0660000000,-0.2850000000,-7.3932147114,-3.7542032210,-6.0615284922,-0.0214675498,3.0262263900,-2.8710666195,-530,-240,118
-0.1280000000,1.3200000000,-0.4250000000,-8.7353729062,-2.8850292535,-5.9061941887,0.0207694181,2.9461157774,-2.8169614127,-516,-284,113
0.0490000000,1.5930000000,-0.5290000000,-9.6987946533,-2.1170843827,-5.4646258880,0.0588175958,2.8562313209,-2.7680921937,-491,-335,98
0.2000000000,1.8370000000,-0.5580000000,-10.2660266602,-1.6702800942,-4.8205993940,0.0935496479,2.7598891462,-2.7244589624,-475,-368,85
0.2560000000,2.0450000000,-0.5100000000,-10.6534897542,-1.7837264955,-4.1451569735,0.1272345025,2.6591836483,-2.6930430358,-459,-406,61
0.1830000000,2.2300000000,-0.4020000000,-10.6866510100,-2.5359634031,-3.6704274169,0.1649336143,2.5556856237,-2.6703537556,-440,-438,30
-0.0130000000,2.3850000000,-0.2770000000,-10.4353235977,-3.4854225162,-3.2794736645,0.2094395102,2.4520130661,-2.6598817800,-427,-464,-5
-0.2670000000,2.5150000000,-0.1990000000,-10.0722951133,-4.4331363001,-3.0002209842,0.2593559268,2.3485150415,-2.6633724385,-405,-490,-36
-0.4920000000,2.6280000000,-0.1920000000,-9.6673787268,-5.2202797927,-2.7768188399,0.3127630020,2.2448424839,-2.6825710603,-392,-499,-52
-0.6440000000,2.7410000000,-0.2420000000,-9.3898713757,-5.7805304826,-2.4678955623,0.3661700771,2.1394245971,-2.7139869869,-376,-518,-85
-0.7230000000,2.8660000000,-0.3150000000,-9.3060955716,-6.1243603452,-2.0018926520,0.4150392961,2.0292943213,-2.7576202182,-364,-531,-110
-0.7200000000,3.0100000000,-0.3940000000,-9.3148222179,-6.0842177725,-1.4730578887,0.4551818689,1.9134044590,-2.8117254250,-354,-531,-135
-0.6310000000,3.1690000000,-0.4790000000,-9.2223197675,-5.8136917384,-0.8726646260,0.4834562028,1.7933258064,-2.8728119488,-343,-538,-173
-0.5000000000,3.3160000000,-0.5420000000,-9.0512775008,-5.6967546785,0.0436332313,0.4975933697,1.6721999563,-2.9356438019,-339,-536,-197
-0.4020000000,3.4520000000,-0.5700000000,-8.7632981743,-5.5867989356,1.2705996955,0.4941027112,1.5522958367,-3.0002209842,-350,-528,-226
-0.2940000000,3.6370000000,-0.6800000000,-8.3077672395,-5.3721234376,2.7488935719,0.4710643651,1.4388494353,-3.0595621787,-359,-518,-250
-0.2900000000,3.6430000000,-0.7890000000,-7.6235981727,-5.1522119519,4.4244096538,0.4270820680,1.3367476741,-3.1101767271,-383,-502,-270
-0.3220000000,3.5780000000,-0.9290000000,-6.7718774977,-4.7612581994,6.0999257357,0.3637266161,1.2503538761,3.1346113366,-414,-476,-293
-0.3930000000,3.4650000000,-1.0760000000,-5.7892571289,-4.2812926551,7.7440258911,0.2839650693,1.1805407060,3.1154127148,-442,-452,-300
-0.5150000000,3.3330000000,-1.2120000000,-4.6041785668,-3.7768925013,9.2589716818,0.1905899543,1.1271336309,3.1119220563,-478,-416,-308
-0.7050000000,3.1740000000,-1.3270000000,-3.2515483965,-3.2969269570,10.5906579011,0.0865683309,1.0887363874,3.1258846903,-515,-368,-304
-0.9660000000,2.9550000000,-1.3970000000,-1.5673056683,-2.8780479365,11.7129046101,-0.0254818071,1.0641272449,-3.1311206781,-548,-322,-297
-1.2520000000,2.6520000000,-1.3900000000,0.4485496178,-2.5516713664,12.4040549939,-0.1439896633,1.0543534011,-3.0944687638,-580,-263,-278
-1.5020000000,2.2810000000,-1.2800000000,2.5167647814,-2.4242623310,12.5593892974,-0.2647664475,1.0597639218,-3.0543261910,-600,-223,-267
-1.6720000000,1.8820000000,-1.0600000000,4.5116761164,-2.7296949501,12.4581602007,-0.3864158964,1.0810569387,-3.0141836182,-616,-167,-247
-1.6940000000,1.4850000000,-0.7590000000,6.6165431943,-3.4103733584,12.0794237531,-0.5096361416,1.1217231103,-2.9810223624,-621,-117,-231
-1.5510000000,1.0990000000,-0.4290000000,8.6219265049,-4.2219514606,11.3254415162,-0.6321582551,1.1887437535,-2.9653143991,-632,-65,-209
-1.2920000000,0.7480000000,-0.1290000000,10.2904612698,-5.1260320131,10.3026785745,-0.7497934467,1.2892747184,-2.9757863747,-628,-10,-189
-1.0020000000,0.4680000000,0.0970000000,11.7181405979,-5.9777526881,8.9989176233,-0.8560839981,1.4336134476,-3.0246555937,-620,18,-172
-0.7440000000,0.2610000000,0.2400000000,12.8351513192,-6.7369709127,7.5642569781,-0.9419541973,1.6313592518,-3.1206487026,-609,53,-160
-0.5340000000,0.1190000000,0.3170000000,13.5594629587,-7.4438292598,6.0423298704,-0.9965830029,1.8825121312,3.0159289474,-600,76,-146
-0.3810000000,0.0310000000,0.3390000000,13.8858395289,-8.1332343143,4.4628068973,-1.0105456369,2.1654300029,2.8431413515,-592,99,-141
-0.2870000000,-0.0250000000,0.3140000000,13.9259821017,-8.6812676994,2.9059732046,-0.9824458359,2.4396212284,2.6825710603,-587,118,-133
-0.2280000000,-0.0720000000,0.2520000000,13.7828651030,-8.9936816355,1.3980087308,-0.9211847792,2.6726226836,2.5673793297,-582,127,-125
-0.1920000000,-0.1180000000,0.1490000000,13.4180912893,-8.9762283430,-0.0122173048,-0.8403760348,2.8574530514,2.5045474766,-583,130,-121
-0.1770000000,-0.1640000000,0.0100000000,12.8089713804,-8.6812676994,-1.2828170002,-0.7529350393,3.0019663134,2.4870941841,-582,133,-114
-0.1840000000,-0.1960000000,-0.1380000000,11.9275801081,-8.1751222163,-2.3701571242,-0.6672393730,3.1169835111,2.5010568181,-585,125,-105
-0.2290000000,-0.2000000000,-0.2700000000,10.7198122657,-7.5101517713,-3.2480577380,-0.5893976884,-3.0735248128,2.5377087324,-587,117,-92
-0.3250000000,-0.1700000000,-0.3550000000,9.2781703036,-6.7771134855,-3.9776053653,-0.5218534463,-2.9993483196,2.5883232807,-586,107,-85
-0.4480000000,-0.1220000000,-0.3860000000,7.6777033795,-6.1540309425,-4.7211156266,-0.4656538444,-2.9426251189,2.6494098045,-595,93,-78
-0.5290000000,-0.0690000000,-0.3850000000,6.0178952609,-6.0126592731,-5.5257124118,-0.4178318229,-2.9028316119,2.7174776454,-601,76,-59
-0.5440000000,0.0010000000,-0.3790000000,4.2079888266,-5.8800142500,-6.2412974051,-0.3745476575,-2.8806659304,2.7960174617,-601,51,-44
-0.5040000000,0.0970000000,-0.3800000000,2.5045474766,-5.3808500839,-6.8067840828,-0.3366740127,-2.8752554097,2.8780479365,-608,19,-14
-0.4170000000,0.2230000000,-0.3830000000,1.0384709049,-4.6862090416,-7.1767938842,-0.3059562179,-2.8838075231,2.9635690699,-610,0,1
-0.3050000000,0.3660000000,-0.3600000000,-0.2967059728,-3.9933133286,-7.2308990910,-0.2815216083,-2.9038788095,3.0473448740,-609,-32,16
-0.1990000000,0.5120000000,-0.2930000000,-1.6126842288,-3.4540065897,-6.9080131794,-0.2609267232,-2.9342475385,3.1276300196,-607,-67,31
-0.1280000000,0.6460000000,-0.1950000000,-2.8169614127,-3.2724923475,-6.4263023058,-0.2406809039,-2.9743901112,-3.0787608005,-600,-103,46
-0.0980000000,0.7510000000,-0.0900000000,-3.9130281830,-3.3894294074,-5.9829886758,-0.2167698931,-3.0229102645,-3.0124382889,-591,-141,60
-0.0930000000,0.8400000000,-0.0170000000,-5.1417399764,-3.5499996986,-5.6932640200,-0.1876228946,-3.0799825310,-2.9496064359,-582,-167,69
-0.0750000000,0.9440000000,-0.0100000000,-6.5118234392,-3.4784411992,-5.6566121057,-0.1537635071,3.1356585341,-2.8902652413,-571,-203,80
-0.0290000000,1.0990000000,-0.0750000000,-7.8138390612,-3.0630528373,-5.7613318608,-0.1183333233,3.0571187178,-2.8344147052,-557,-246,83
0.0460000000,1.3100000000,-0.1740000000,-8.9762283430,-2.5569073542,-5.8049650921,-0.0829031395,2.9682814589,-2.7803094984,-537,-286,72
0.1470000000,1.5530000000,-0.2530000000,-9.9309234438,-2.1764255772,-5.7910024581,-0.0471238898,2.8707175537,-2.7296949501,-513,-332,62
0.2560000000,1.8060000000,-0.2770000000,-10.6325458031,-1.9634954085,-5.6059975574,-0.0094247780,2.7668704632,-2.6808257311,-500,-370,48
0.3030000000,2.0720000000,-0.2430000000,-11.0514248236,-2.0909044439,-5.2831116458,0.0310668607,2.6590091154,-2.6406831583,-479,-404,20
0.2340000000,2.3140000000,-0.1680000000,-11.1596352373,-2.6773350726,-4.8537606498,0.0767944871,2.5497515042,-2.6075219025,-458,-437,-9
0.0290000000,2.5220000000,-0.0840000000,-11.0461888359,-3.6843900510,-4.2812926551,0.1291543646,2.4404938931,-2.5918139392,-441,-463,-39
-0.2660000000,2.7010000000,-0.0290000000,-10.6831603515,-4.9497537587,-3.6721727462,0.1872738287,2.3314108148,-2.5918139392,-413,-490,-76
-0.5560000000,2.8540000000,-0.0350000000,-10.0722951133,-6.1383229793,-3.2375857624,0.2490584843,2.2230258683,-2.6110125610,-402,-504,-100
-0.7610000000,2.9970000000,-0.1200000000,-9.4771378383,-6.9970249712,-2.8902652413,0.3111922056,2.1146409217,-2.6494098045,-387,-516,-119
-0.8570000000,3.1530000000,-0.2620000000,-9.1629785730,-7.5241144053,-2.3666664657,0.3687880709,2.0034634484,-2.7070056698,-374,-524,-142
-0.8320000000,3.3390000000,-0.4160000000,-9.0774574396,-7.5729836244,-1.5166911200,0.4152138290,1.8861773226,-2.7750735107,-365,-527,-163
-0.6990000000,3.5480000000,-0.5700000000,-8.9989176233,-7.1279246651,-0.4886921906,0.4441862946,1.7643533408,-2.8501226685,-357,-529,-197
-0.5220000000,3.7370000000,-0.7770000000,-8.9046698437,-6.6374871453,0.6283185307,0.4532620067,1.6420057603,-2.9251718263,-359,-523,-213
-0.3500000000,3.8770000000,-0.7770000000,-8.7458448817,-6.1557762718,2.0071286398,0.4417428337,1.5227997724,-2.9967303257,-371,-516,-236
-0.2150000000,3.9770000000,-0.8370000000,-8.3671084341,-5.4541539125,3.4784411992,0.4092797096,1.4119713649,-3.0578168495,-387,-501,-260
-0.1280000000,4.0170000000,-0.9080000000,-7.9639373769,-4.9916416607,5.2796209873,0.3572688979,1.3130111963,-3.1031954100,-410,-480,-282
-0.2300000000,3.9290000000,-1.0570000000,-7.2396257373,-4.7455502362,7.5206237468,0.2829178717,1.2271409971,-3.1328660073,-445,-448,-300
-0.4220000000,3.7420000000,-1.1700000000,-6.0754911262,-4.6809730538,9.6045468737,0.1869247629,1.1566296953,3.1398473243,-477,-416,-302
-0.7660000000,3.4660000000,-1.2990000000,-4.4087016905,-5.0038589655,11.2852989434,0.0726056969,1.1030480873,3.1398473243,-514,-365,-299
-1.1970000000,3.1130000000,-1.4220000000,-2.1921335405,-5.3686327791,12.3237698483,-0.0555014702,1.0686651010,-3.1311206781,-556,-318,-281
-1.5740000000,2.7000000000,-1.5160000000,0.1518436449,-5.4576445710,12.7251955763,-0.1912880860,1.0555751316,-3.1171580441,-588,-261,-259
-1.8010000000,2.2660000000,-1.5560000000,2.6092672317,-5.2324970975,12.6431651014,-0.3282964323,1.0639527120,-3.1014500808,-614,-196,-231
-1.8370000000,1.8400000000,-1.4940000000,5.2429690730,-4.9829150144,12.1544729109,-0.4619886530,1.0960667703,-3.0874874468,-628,-155,-207
-1.6870000000,1.4500000000,-1.2800000000,7.6061448802,-4.8502699913,11.4266706128,-0.5911430177,1.1561060965,-3.0787608005,-635,-99,-179
-1.4280000000,1.1060000000,-0.9440000000,9.5364790329,-4.9270644784,10.4841928167,-0.7098254068,1.2440706908,-3.0857421175,-631,-50,-154
-1.1310000000,0.7980000000,-0.5520000000,11.0549154821,-5.2359877560,9.4177966438,-0.8194320838,1.3679890677,-3.1154127148,-625,-4,-137
-0.8300000000,0.5330000000,-0.1840000000,12.2190500932,-5.6304321669,8.1855941919,-0.9138543963,1.5346680113,3.0997047515,-619,47,-122
-0.5580000000,0.3280000000,0.0890000000,13.0707707682,-5.9777526881,6.8573986311,-0.9854128957,1.7488199105,2.9914943379,-607,75,-119
-0.3590000000,0.1960000000,0.2500000000,13.4966311057,-6.2168627956,5.5065137900,-1.0267771989,2.0027653167,2.8483773393,-592,106,-116
-0.2430000000,0.1310000000,0.3110000000,13.5088484104,-6.3529984773,4.1783182293,-1.0346311806,2.2698006922,2.6947883651,-578,127,-116
-0.1880000000,0.0970000000,0.3060000000,13.1440745968,-6.4978608052,2.9007372168,-1.0119419003,2.5179865119,2.5603980127,-572,144,-120
-0.1790000000,0.0710000000,0.2570000000,12.5681159436,-6.6479591208,1.6406094969,-0.9667378727,2.7269024233,2.4644049038,-563,161,-124
-0.1920000000,0.0270000000,0.1790000000,11.9205987911,-6.7579148637,0.4625122518,-0.9072221452,2.8932323010,2.4102996970,-566,162,-132
-0.2080000000,-0.0290000000,0.0850000000,11.3132242114,-6.7980574365,-0.6335545185,-0.8407251007,3.0237829291,2.3928464045,-564,161,-131
-0.2270000000,-0.0850000000,-0.0130000000,10.6744337052,-6.7474428882,-1.6126842288,-0.7726572599,3.1272809537,2.4015730507,-569,155,-136
-0.2530000000,-0.1290000000,-0.1110000000,9.9204514683,-6.5467300242,-2.5220007691,-0.7065092812,-3.0724776152,2.4312436480,-574,151,-134
-0.3020000000,-0.1510000000,-0.2000000000,9.0512775008,-6.2203534541,-3.4295719802,-0.6461208891,-3.0058060378,2.4766222086,-577,135,-127
-0.3500000000,-0.1460000000,-0.2720000000,7.9429934258,-5.9114301765,-4.3633231300,-0.5925392811,-2.9539697590,2.5359634031,-583,125,-121
-0.3690000000,-0.1030000000,-0.3340000000,6.4542275739,-5.5902895941,-5.4000487057,-0.5459389900,-2.9185395752,2.6057765732,-592,101,-113
-0.3220000000,-0.0330000000,-0.3880000000,4.6774823953,-4.9654617219,-6.6252698406,-0.5077162794,-2.9026570790,2.6860617188,-603,80,-101
-0.2210000000,0.0690000000,-0.4150000000,2.6686084263,-3.8711402809,-7.7492618789,-0.4808382089,-2.9077185338,2.7768188399,-615,43,-83
-0.1120000000,0.2310000000,-0.3750000000,0.6579891280,-2.8553586563,-8.5067347742,-0.4656538444,-2.9345966043,2.8745572780,-622,3,-73
-0.0310000000,0.4210000000,-0.2490000000,-0.8656833090,-2.1956241990,-8.8749992464,-0.4567526652,-2.9801496978,2.9740410454,-624,-25,-62
-0.0130000000,0.6010000000,-0.0730000000,-2.0245819323,-1.7907078125,-8.7772608083,-0.4488986836,-3.0380946289,3.0752701420,-624,-72,-52
-0.0400000000,0.7490000000,0.0950000000,-3.0124382889,-1.7837264955,-8.3130032272,-0.4375540435,-3.1040680747,-3.1101767271,-622,-112,-48
-0.0950000000,0.8570000000,0.2110000000,-4.0072759626,-2.0123646275,-7.6707220625,-0.4190535534,3.1075587332,-3.0211649352,-616,-154,-42
-0.1730000000,0.9360000000,0.2470000000,-5.0789081233,-2.3474678439,-7.0197142515,-0.3923500158,3.0319859766,-2.9443704481,-609,-200,-36
-0.2160000000,1.0090000000,0.2080000000,-5.9829886758,-2.6790804018,-6.8643799481,-0.3574434308,2.9515262980,-2.8745572780,-602,-231,-29
-0.1670000000,1.1090000000,0.1170000000,-6.5990899018,-2.7104963283,-7.3094389074,-0.3148573971,2.8672268952,-2.8082347665,-591,-266,-32
-0.0360000000,1.2610000000,-0.0020000000,-7.3076935781,-2.4713862208,-7.8906335483,-0.2661627109,2.7792623009,-2.7419122549,-574,-305,-35
0.1070000000,1.4990000000,-0.1060000000,-8.2292274232,-2.1066124072,-8.1716315578,-0.2131047017,2.6862362517,-2.6755897433,-550,-347,-41
0.2040000000,1.8070000000,-0.1210000000,-8.9291044532,-1.8989182262,-8.0634211442,-0.1565560339,2.5890214124,-2.6127578902,-518,-392,-65
0.2030000000,2.1200000000,-0.0150000000,-9.2834062914,-2.3457225147,-7.6026542217,-0.0952949772,2.4914575072,-2.5586526834,-500,-422,-82
0.0470000000,2.3760000000,0.1680000000,-9.5626589717,-3.5918876006,-6.7648961807,-0.0272271363,2.3949407996,-2.5254914276,-471,-447,-106
-0.2300000000,2.5720000000,0.3340000000,-9.5260070574,-5.0597095015,-5.8904862255,0.0476474886,2.2991222237,-2.5115287936,-448,-471,-133
-0.5150000000,2.7380000000,0.4020000000,-9.0879294151,-6.1627575888,-5.3721234376,0.1263618378,2.2052235099,-2.5185101106,-425,-489,-150
-0.7330000000,2.8790000000,0.3260000000,-8.6812676994,-6.8835785699,-5.0265482457,0.2055997859,2.1120229278,-2.5446900494,-400,-506,-175
-0.8900000000,3.0270000000,0.1440000000,-8.3304565198,-7.2832589686,-4.7071529926,0.2820452071,2.0172515495,-2.5883232807,-384,-514,-188
-0.9700000000,3.2030000000,-0.0280000000,-8.3374378368,-7.5712382952,-4.1608649368,0.3518583772,1.9174187162,-2.6424284875,-368,-520,-208
-0.9460000000,3.3960000000,-0.1680000000,-8.3601271171,-7.4630278815,-3.3353242006,0.4101523742,1.8093828355,-2.7087509991,-356,-525,-223
-0.8030000000,3.5950000000,-0.2890000000,-8.1716315578,-7.1977378352,-2.1921335405,0.4511676116,1.6955873683,-2.7820548277,-348,-523,-249
-0.5840000000,3.7830000000,-0.3780000000,-7.6986473305,-6.9516464107,-0.9861110274,0.4726351614,1.5814428352,-2.8588493148,-345,-522,-273
-0.3950000000,3.9100000000,-0.4290000000,-7.1802845427,-6.8207467168,0.4310963252,0.4729842273,1.4716616253,-2.9373891311,-349,-514,-291
-0.2920000000,3.9740000000,-0.4570000000,-6.8137653998,-6.5502206827,1.8936822384,0.4525638750,1.3695598640,-3.0089476304,-364,-498,-303
-0.3490000000,3.9150000000,-0.5890000000,-6.5345127195,-6.3163465630,3.8816122564,0.4103269071,1.2768828808,-3.0700341543,-384,-483,-316
-0.3490000000,3.9150000000,-0.5890000000,-5.9882246636,-6.2570053684,6.3355451847,0.3427826651,1.1967722681,-3.1154127148,-415,-461,-322
-0.4890000000,3.7520000000,-0.7240000000,-4.8572513083,-6.1522856133,8.4857908232,0.2509783464,1.1328932175,3.1363566658,-456,-424,-325
-0.6800000000,3.4800000000,-0.9190000000,-3.3073989325,-5.9236474813,9.9029981758,0.1418952682,1.0882127886,3.1241393611,-490,-390,-317
-1.1610000000,2.8280000000,-1.3750000000,-1.5166911200,-5.4000487057,10.6465084372,0.0244346095,1.0629055145,3.1223940318,-525,-348,-299
-1.3340000000,2.5190000000,-1.5330000000,0.3752457892,-4.6041785668,10.9606677025,-0.0942477796,1.0559241975,3.1311206781,-563,-303,-276
-1.4090000000,2.2160000000,-1.5740000000,2.2322761133,-3.7751471721,11.0409528481,-0.2106612407,1.0653489754,-3.1328660073,-586,-257,-252
-1.3750000000,1.9020000000,-1.4990000000,4.0317105721,-3.1311206781,10.8768918984,-0.3237585762,1.0897835849,-3.1101767271,-613,-204,-229
-1.2560000000,1.5830000000,-1.3350000000,5.7927477874,-2.6406831583,10.5714592793,-0.4326671216,1.1294025590,-3.0874874468,-625,-168,-211
-1.0970000000,1.2730000000,-1.0990000000,7.4036866870,-2.3038346126,10.2171574412,-0.5377359425,1.1843804304,-3.0647981665,-632,-122,-200
-0.9350000000,0.9910000000,-0.8020000000,9.0390601961,-2.1991148575,9.8750729078,-0.6396631709,1.2564625285,-3.0490902032,-632,-77,-185
-0.7660000000,0.7500000000,-0.4890000000,10.5749499378,-2.4225170018,9.3549647907,-0.7391469382,1.3514084398,-3.0438542155,-630,-38,-180
-0.6090000000,0.5640000000,-0.2100000000,11.7146499394,-2.8501226685,8.5817839321,-0.8316493886,1.4732324216,-3.0595621787,-624,9,-171
-0.4890000000,0.4370000000,0.0100000000,12.4389615790,-3.3318335421,7.6567594285,-0.9136798634,1.6280431263,-3.1049407393,-617,37,-167
-0.3990000000,0.3610000000,0.1720000000,12.9119458063,-3.8763762687,6.6078165481,-0.9791297104,1.8188076135,3.0979594223,-607,60,-168
-0.3530000000,0.3080000000,0.2780000000,13.1353479505,-4.3580871422,5.4558992417,-1.0218902770,2.0416861590,2.9880036794,-599,87,-174
-0.3280000000,0.2450000000,0.3380000000,13.1946891451,-5.0579641723,4.2760566674,-1.0367255757,2.2827161287,2.8605946440,-589,100,-177
-0.3030000000,0.1510000000,0.3590000000,13.1475652553,-5.7822758119,3.1712632509,-1.0224138758,2.5209535716,2.7366762671,-585,114,-185
-0.2730000000,0.0420000000,0.3320000000,12.9293990988,-6.2884212949,2.0629791759,-0.9831439676,2.7340582732,2.6389378290,-582,118,-180
-0.2450000000,-0.0580000000,0.2640000000,12.5297187001,-6.6531951086,1.0157816247,-0.9269443657,2.9113837253,2.5778513052,-584,121,-181
-0.2280000000,-0.1370000000,0.1760000000,11.9066361571,-6.8853238991,0.0226892803,-0.8613199859,3.0539771251,2.5516713664,-588,117,-180
-0.2260000000,-0.1880000000,0.0800000000,11.0112822508,-6.9027771916,-0.9354964791,-0.7923794804,-3.1159363136,2.5551620249,-588,109,-177
-0.2390000000,-0.1990000000,-0.0180000000,9.7860611159,-6.7963121073,-1.8884462507,-0.7250097713,-3.0284953181,2.5795966344,-595,95,-169
-0.2490000000,-0.1720000000,-0.1280000000,8.1192716803,-6.6095618773,-3.0106929597,-0.6621779182,-2.9654889321,2.6232298657,-603,83,-159
-0.2150000000,-0.1150000000,-0.2440000000,6.0877084310,-6.2290801004,-4.4017203735,-0.6059783163,-2.9284879519,2.6825710603,-608,68,-141
-0.1420000000,-0.0300000000,-0.3320000000,4.1538836197,-5.4576445710,-5.7787851534,-0.5593780253,-2.9174923776,2.7558748889,-616,46,-121
-0.0780000000,0.0860000000,-0.3550000000,2.4888395133,-4.2690753504,-6.6025805603,-0.5246459731,-2.9263935568,2.8396506930,-624,17,-103
-0.0180000000,0.2300000000,-0.2990000000,0.7958701389,-3.0368728985,-6.6654124134,-0.5021312258,-2.9501300346,2.9234264971,-624,-16,-88
0.0660000000,0.3550000000,-0.1600000000,-0.8133234314,-2.3282692222,-6.2570053684,-0.4871213942,-2.9866074160,3.0019663134,-630,-40,-80
0.1450000000,0.4320000000,0.0210000000,-1.9879300180,-2.2026055160,-5.7630771901,-0.4731587602,-3.0332077070,3.0717794835,-629,-65,-68
0.1290000000,0.4840000000,0.1800000000,-2.6337018413,-2.5446900494,-5.3721234376,-0.4546582701,-3.0850439858,3.1363566658,-627,-101,-58
-0.0160000000,0.5300000000,0.2670000000,-2.9984756549,-3.2358404332,-5.2639130240,-0.4279547326,-3.1384510609,-3.0857421175,-623,-127,-45
-0.2320000000,0.5960000000,0.2820000000,-3.4452799434,-4.1224676932,-5.4960418145,-0.3904301537,3.0901054407,-3.0281462522,-618,-165,-27
-0.4210000000,0.7130000000,0.2220000000,-4.2446407409,-4.9061205274,-6.0510565167,-0.3410373358,3.0318114436,-2.9722957161,-606,-187,-16
-0.5120000000,0.8920000000,0.0970000000,-5.1731559029,-5.2185344635,-6.7579148637,-0.2816961413,2.9674087942,-2.9129545216,-593,-226,1
-0.4790000000,1.1260000000,-0.0560000000,-6.2308254296,-5.0579641723,-7.3722707604,-0.2164208272,2.8963738937,-2.8536133270,-577,-257,16
-0.3410000000,1.4140000000,-0.1870000000,-7.4787358448,-4.5588000062,-7.5468036856,-0.1490511181,2.8178340773,-2.7942721324,-555,-298,18
-0.1540000000,1.7360000000,-0.2450000000,-8.6009825538,-3.9793506945,-7.1506139454,-0.0825540736,2.7316148123,-2.7401669256,-528,-351,16
0.0080000000,2.0680000000,-0.2210000000,-9.4369952655,-3.7018433435,-6.2622413562,-0.0186750230,2.6394614278,-2.6947883651,-504,-383,12
0.0820000000,2.3610000000,-0.1310000000,-9.9221967976,-3.9584067435,-5.1225413546,0.0432841654,2.5429447202,-2.6668630970,-484,-418,-10
0.0140000000,2.5930000000,-0.0250000000,-9.9885193092,-4.7176249681,-4.0666171571,0.1048942880,2.4439845516,-2.6546457923,-462,-442,-29
-0.1670000000,2.7710000000,0.0480000000,-9.6586520805,-5.7142079710,-3.4278266509,0.1679006740,2.3445007842,-2.6651177678,-442,-468,-51
-0.4120000000,2.9300000000,0.0510000000,-9.2502450356,-6.6636670841,-3.1189033733,0.2330014551,2.2448424839,-2.6912977066,-422,-489,-72
-0.6450000000,3.0880000000,-0.0190000000,-8.9325951117,-7.3426001631,-2.8955012291,0.2981022362,2.1432643214,-2.7314402794,-406,-500,-87
-0.7880000000,3.2560000000,-0.1310000000,-8.8034407471,-7.6654860748,-2.4486969405,0.3590142271,2.0371483029,-2.7855454862,-389,-513,-106
-0.8070000000,3.4460000000,-0.2500000000,-8.9011791852,-7.6515234407,-1.7034413499,0.4091051767,1.9240509674,-2.8553586563,-378,-523,-124
-0.7250000000,3.6690000000,-0.3680000000,-9.0233522328,-7.3513268094,-0.6038839212,0.4426154983,1.8034487161,-2.9304078141,-367,-528,-150
-0.6070000000,3.9000000000,-0.4830000000,-8.9011791852,-7.1244340066,0.7173303226,0.4551818689,1.6793558063,-3.0089476304,-366,-528,-177
-0.5100000000,4.0930000000,-0.5660000000,-8.6341438096,-7.2850042978,2.3666664657,0.4443608276,1.5566591599,-3.0874874468,-372,-523,-194
-0.4820000000,4.2330000000,-0.6300000000,-8.1855941919,-7.3722707604,4.3947390565,0.4066617157,1.4400711658,3.1154127148,-391,-513,-211
-0.5050000000,4.3080000000,-0.7490000000,-7.5607663196,-7.0319315563,6.6165431943,0.3405137371,1.3369222070,3.0490902032,-413,-495,-225
-0.5560000000,4.3030000000,-0.9490000000,-6.8015480950,-6.4856435004,8.7493355402,0.2492330172,1.2510520078,3.0037116427,-451,-466,-232
-0.8800000000,4.0160000000,-1.5050000000,-5.8363810187,-5.7962384459,10.5574966453,0.1378810109,1.1821115024,2.9792770332,-493,-425,-237
-0.8800000000,4.0160000000,-1.5050000000,-4.5640359940,-4.7909287967,11.8123883775,0.0141371669,1.1288789602,2.9757863747,-525,-385,-230
-1.1320000000,3.7470000000,-1.8220000000,-3.0997047515,-3.4382986264,12.4249989449,-0.1125737368,1.0887363874,2.9932396672,-563,-336,-219
-1.3470000000,3.3890000000,-2.0900000000,-1.6458454846,-2.4678955623,12.3586764334,-0.2357939819,1.0583676584,3.0264009230,-594,-274,-210
-1.4280000000,2.4490000000,-2.0540000000,-0.0383972435,-1.8832102629,11.9450334006,-0.3520329101,1.0360274440,3.0700341543,-612,-218,-198
-1.4300000000,2.0210000000,-1.7410000000,2.0751964806,-1.7243853010,11.5732782700,-0.4618141201,1.0250318697,3.1206487026,-631,-154,-185
-1.4050000000,1.6690000000,-1.3620000000,4.5256387504,-1.5899949486,11.0688781161,-0.5675810727,1.0314895879,-3.1101767271,-637,-112,-180
-1.3170000000,1.3680000000,-0.9990000000,6.9097585086,-1.6126842288,10.3358398303,-0.6682865706,1.0588912572,-3.0595621787,-639,-62,-173
-1.1310000000,1.0590000000,-0.6340000000,8.8034407471,-2.1816615650,9.3654367662,-0.7641051465,1.1105530030,-3.0194196060,-631,-16,-163
-0.9060000000,0.7590000000,-0.2620000000,10.1525802589,-3.1450833121,8.2327180817,-0.8552113335,1.1917108133,-3.0019663134,-620,22,-162
-0.7110000000,0.5020000000,0.0750000000,11.1927964930,-4.3947390565,7.1331606529,-0.9400343351,1.3114403999,-3.0194196060,-613,64,-153
-0.5620000000,0.2870000000,0.3320000000,12.0776784238,-5.6025068989,6.0196405901,-1.0143853613,1.4840534630,-3.0857421175,-604,87,-153
-0.4380000000,0.1020000000,0.4790000000,12.7601021613,-6.5380033780,4.8031461015,-1.0669197717,1.7114698645,3.0752701420,-592,106,-151
-0.3340000000,-0.0450000000,0.5020000000,13.1370932798,-7.0179689223,3.5238197598,-1.0890854532,1.9837412278,2.9129545216,-584,127,-149
-0.2450000000,-0.1470000000,0.4190000000,13.0742614267,-7.1610859209,2.1851522235,-1.0768681485,2.2574088545,2.7523842304,-580,134,-146
-0.1950000000,-0.2110000000,0.2770000000,12.6222211504,-7.0685834706,0.9581857593,-1.0369001086,2.4944245670,2.6267205243,-575,144,-148
-0.1930000000,-0.2520000000,0.1130000000,12.0846597408,-6.7928214488,-0.3054326191,-0.9798278421,2.6813493298,2.5534166957,-572,137,-154
-0.2250000000,-0.2700000000,-0.0450000000,11.3428948087,-6.5083327807,-1.5166911200,-0.9154251927,2.8228955322,2.5237460984,-577,132,-153
-0.2700000000,-0.2310000000,-0.2010000000,10.4318329392,-6.3617251235,-2.7872908154,-0.8480554835,2.9284879519,2.5289820861,-582,123,-150
-0.3080000000,-0.1190000000,-0.3740000000,9.2886422791,-6.1261056745,-4.1277036810,-0.7806857744,3.0038861756,2.5603980127,-590,107,-146
-0.3180000000,0.0330000000,-0.5430000000,8.0354958762,-5.6356681547,-5.3791047546,-0.7166321909,3.0539771251,2.6162485487,-601,86,-134
-0.3040000000,0.1870000000,-0.6580000000,6.7230082787,-4.8747046008,-6.4263023058,-0.6595599243,3.0836477224,2.6860617188,-609,62,-127
-0.2800000000,0.3230000000,-0.6830000000,5.3354715233,-4.0526545231,-7.2658056761,-0.6113888370,3.0960395601,2.7680921937,-616,31,-113
-0.2590000000,0.4350000000,-0.6010000000,4.0718531449,-3.3265975543,-7.8400190000,-0.5707226654,3.0941196979,2.8571039855,-621,0,-103
-0.2480000000,0.5100000000,-0.4300000000,3.0054569719,-2.6232298657,-7.9709186939,-0.5366887450,3.0819023932,2.9478611066,-628,-36,-93
-0.2440000000,0.5590000000,-0.2190000000,2.0367992371,-2.1327923459,-7.7161006231,-0.5075417465,3.0632273702,3.0368728985,-633,-77,-82
-0.2410000000,0.5900000000,-0.0170000000,1.1815879036,-2.0437805541,-7.3722707604,-0.4803146101,3.0401890240,3.1189033733,-628,-106,-67
-0.2720000000,0.6240000000,0.1320000000,0.5218534463,-2.3561944902,-7.0668381413,-0.4508185458,3.0140090853,-3.0839967883,-626,-139,-59
-0.3470000000,0.6860000000,0.2000000000,-0.2024581932,-2.9356438019,-6.8888145576,-0.4152138290,2.9859092843,-3.0124382889,-620,-172,-49
-0.4040000000,0.7860000000,0.1780000000,-1.1850785621,-3.3999013829,-7.0092422760,-0.3722787295,2.9536206932,-2.9443704481,-610,-208,-36
-0.3840000000,0.9180000000,0.0810000000,-2.3457225147,-3.3719761149,-7.4193946502,-0.3239331092,2.9136526533,-2.8780479365,-595,-244,-22
-0.2970000000,1.0800000000,-0.0460000000,-3.5499996986,-2.9077185338,-7.8504909755,-0.2741912255,2.8646089013,-2.8082347665,-583,-272,-13
-0.1870000000,1.2740000000,-0.1470000000,-4.7019170049,-2.3858650875,-8.0948370707,-0.2247984077,2.8064894372,-2.7384215964,-566,-311,-12
-0.0780000000,1.4700000000,-0.1710000000,-5.5693456431,-2.0176006153,-8.0913464122,-0.1752310569,2.7415631890,-2.6686084263,-541,-349,-19
0.0020000000,1.6460000000,-0.1230000000,-6.1418136378,-1.8587756534,-7.7597338544,-0.1242674427,2.6734953482,-2.6040312440,-518,-385,-24
0.0230000000,1.7940000000,-0.0380000000,-6.5449846950,-2.0717058221,-7.1209433481,-0.0715584993,2.6047293757,-2.5481807079,-484,-424,-45
-0.0190000000,1.9230000000,0.0610000000,-6.7945667780,-2.6947883651,-6.3233278800,-0.0157079633,2.5359634031,-2.5028021474,-464,-451,-59
-0.1030000000,2.0540000000,0.1640000000,-6.7648961807,-3.5936329299,-5.6217055207,0.0445058959,2.4684191611,-2.4766222086,-438,-471,-68
-0.2100000000,2.2020000000,0.2510000000,-6.6776297181,-4.6827183831,-5.0841441111,0.1101302758,2.4024457154,-2.4626595746,-415,-492,-90
-0.3350000000,2.4040000000,0.2950000000,-6.6514497794,-5.7665678486,-4.6705010783,0.1811651764,2.3355996050,-2.4644049038,-390,-507,-105
-0.4460000000,2.6540000000,0.2930000000,-6.6933376814,-6.6950830107,-4.1730822415,0.2555162025,2.2654373691,-2.4801128671,-364,-523,-123
-0.5240000000,2.9130000000,0.2450000000,-6.7945667780,-7.3635441142,-3.3527774931,0.3286454982,2.1884683491,-2.5150194521,-349,-533,-134
-0.5650000000,3.1330000000,0.1370000000,-6.8591439603,-7.6654860748,-2.1851522235,0.3932226805,2.1020745511,-2.5673793297,-334,-543,-150
-0.5800000000,3.2910000000,-0.0260000000,-6.8347093508,-7.7352992448,-0.8639379797,0.4431390971,2.0066050410,-2.6337018413,-329,-545,-168
-0.5920000000,3.3770000000,-0.2190000000,-6.6968283399,-7.7544978666,0.3752457892,0.4747295565,1.9039796810,-2.7122416576,-328,-546,-181
-0.6260000000,3.4080000000,-0.4130000000,-6.3599797943,-7.8417643292,1.4398966329,0.4879940589,1.7980381954,-2.7977627909,-330,-542,-202
-0.6870000000,3.3990000000,-0.5830000000,-5.7211892880,-7.9203041456,2.3928464045,0.4832816699,1.6943656378,-2.8902652413,-337,-537,-207
-0.7440000000,3.3580000000,-0.7110000000,-4.9357911246,-7.8853975605,3.3667401271,0.4609414555,1.5994197265,-2.9810223624,-356,-528,-215
-0.7650000000,3.3130000000,-0.7780000000,-4.3266712157,-7.6305794897,4.4383722878,0.4216715473,1.5165165871,-3.0665434958,-379,-516,-218
-0.7280000000,3.3040000000,-0.8080000000,-3.9479347680,-6.9551370692,5.7124626418,0.3654719454,1.4465288841,-3.1398473243,-406,-500,-216
-0.6530000000,3.3580000000,-0.8380000000,-3.7472219040,-6.1906828568,7.1855205305,0.2925171826,1.3889330187,3.0839967883,-438,-479,-219
-0.5840000000,3.4280000000,-0.8850000000,-3.3423055176,-5.3616514621,8.7318822477,0.2038544566,1.3426817936,3.0403635570,-465,-459,-212
-0.7340000000,3.4000000000,-1.0800000000,-2.8658306318,-4.5012041409,10.2817346235,0.1003564320,1.3074261427,3.0159289474,-499,-422,-203
-0.7340000000,3.4000000000,-1.0800000000,-2.3876104167,-3.5883969421,11.6343647938,-0.0153588974,1.2803735393,3.0072023012,-532,-380,-200
-0.9790000000,3.2850000000,-1.2300000000,-1.7732545200,-2.8204520712,12.6745810280,-0.1406735377,1.2585569236,3.0124382889,-566,-330,-188
-1.2870000000,3.0810000000,-1.3610000000,-1.0105456369,-2.5481807079,13.1859624988,-0.2713986987,1.2407545652,3.0281462522,-603,-264,-175
-1.8160000000,2.4210000000,-1.4380000000,0.0820304748,-2.6616271093,13.3762033873,-0.4052654523,1.2283627276,3.0490902032,-617,-214,-163
-1.8740000000,1.9560000000,-1.4310000000,1.6807520697,-2.6808257311,13.0358641831,-0.5389576730,1.2259192666,3.0717794835,-630,-147,-147
-1.7190000000,1.4460000000,-1.3880000000,3.7105699897,-2.6371924998,12.1544729109,-0.6672393730,1.2397073677,3.0927234345,-633,-89,-131
-1.4630000000,0.9810000000,-1.2840000000,6.0266219071,-2.7750735107,10.8245320209,-0.7853981634,1.2779300783,3.1066860685,-631,-35,-116
-1.1940000000,0.5930000000,-1.0890000000,8.2728606545,-3.2637657012,9.1943944995,-0.8904669844,1.3517575057,3.1014500808,-624,27,-109
-0.9650000000,0.2730000000,-0.8040000000,10.1630522344,-4.0125119503,7.4298666257,-0.9789551774,1.4730578887,3.0647981665,-615,59,-108
-0.7920000000,0.0330000000,-0.4740000000,11.5331356972,-4.8694686131,5.6688294105,-1.0456267549,1.6502088078,2.9827676917,-599,96,-103
-0.6770000000,-0.1170000000,-0.1650000000,12.3534404456,-5.6932640200,3.9776053653,-1.0835003996,1.8790214727,2.8588493148,-586,123,-107
-0.6050000000,-0.2090000000,0.0590000000,12.5576439681,-6.1871921983,2.3719024535,-1.0878637228,2.1319196813,2.7139869869,-576,138,-108
-0.5250000000,-0.2670000000,0.1740000000,12.3813657136,-6.5030967929,0.8150687607,-1.0611601852,2.3666664657,2.5900686100,-569,156,-116
-0.4550000000,-0.2810000000,0.1800000000,12.1178209966,-6.7107909739,-0.6510078110,-1.0107201698,2.5607470785,2.5062928059,-566,158,-115
-0.4300000000,-0.2510000000,0.1040000000,11.7896990972,-6.7107909739,-1.9076448724,-0.9461429875,2.7125907234,2.4678955623,-564,153,-117
-0.4340000000,-0.2030000000,-0.0090000000,11.2748269679,-6.5606926582,-2.9897490087,-0.8756316857,2.8302259150,2.4644049038,-571,142,-121
-0.4480000000,-0.1430000000,-0.1280000000,10.5522606576,-6.4297929643,-3.9618974020,-0.8042477193,2.9218557008,2.4905848426,-577,134,-123
-0.4670000000,-0.0390000000,-0.2560000000,9.4509578995,-6.2552600391,-4.8851765763,-0.7337364175,2.9923670025,2.5342180739,-588,112,-117
-0.4590000000,0.1080000000,-0.3920000000,7.9115774993,-5.7002453370,-5.8782689207,-0.6675884389,3.0419343533,2.5935592685,-593,98,-113
-0.3920000000,0.2600000000,-0.4990000000,6.4193209888,-4.9584804049,-6.9219758134,-0.6089453760,3.0705577530,2.6668630970,-607,73,-102
-0.3040000000,0.3980000000,-0.5260000000,5.1626839274,-4.2184608021,-7.7091193061,-0.5581562948,3.0827750578,2.7506389011,-612,38,-88
-0.2460000000,0.5140000000,-0.4480000000,4.1608649368,-3.5971235884,-8.1053090463,-0.5143485306,3.0839967883,2.8396506930,-626,10,-77
-0.2190000000,0.5890000000,-0.2880000000,3.2218777992,-3.0927234345,-7.9412480966,-0.4763003529,3.0791098664,2.9286624848,-626,-33,-63
-0.1980000000,0.6230000000,-0.0920000000,2.3143065881,-2.9949849964,-7.5398223686,-0.4410447020,3.0698596213,3.0141836182,-630,-62,-55
-0.2080000000,0.6390000000,0.0740000000,1.5585790220,-3.2410764210,-7.1087260434,-0.4047418535,3.0574677836,3.0909781053,-629,-96,-44
-0.2810000000,0.6610000000,0.1660000000,0.8377580410,-3.6651914292,-6.7177722909,-0.3644247478,3.0431560838,-3.1189033733,-625,-126,-27
-0.3650000000,0.7160000000,0.1710000000,-0.1815142422,-4.1207223640,-6.5833819385,-0.3188716543,3.0255282583,-3.0543261910,-613,-153,-10
-0.3820000000,0.8370000000,0.0910000000,-1.6231562044,-4.1765729000,-6.8207467168,-0.2687807048,2.9989992537,-2.9897490087,-600,-193,12
-0.3160000000,1.0110000000,-0.0340000000,-3.1555552876,-3.6878807095,-7.1471232869,-0.2181661565,2.9602529443,-2.9269171556,-588,-221,23
-0.2020000000,1.1960000000,-0.1550000000,-4.5954519205,-2.9496064359,-7.2902402856,-0.1705186679,2.9094638631,-2.8605946440,-575,-255,32
-0.0900000000,1.3890000000,-0.2120000000,-5.8014744336,-2.3649211365,-7.1994831645,-0.1261873049,2.8485518722,-2.7977627909,-552,-292,35
-0.0010000000,1.5740000000,-0.1730000000,-6.7352255834,-2.1258110289,-6.9568823984,-0.0823795407,2.7799604326,-2.7366762671,-534,-331,29
0.0340000000,1.7400000000,-0.0670000000,-7.4665185400,-2.2741640153,-6.4996061344,-0.0363028484,2.7059584723,-2.6825710603,-505,-374,20
-0.0230000000,1.9090000000,0.0590000000,-7.9656827061,-2.8518679978,-5.8817595792,0.0139626340,2.6284658535,-2.6389378290,-487,-403,7
-0.1620000000,2.0760000000,0.1760000000,-8.1786128748,-3.7192966360,-5.2848569750,0.0706858347,2.5490533725,-2.6092672317,-462,-435,-11
-0.3180000000,2.2640000000,0.2600000000,-8.3234752028,-4.6739917368,-4.9148471736,0.1342158195,2.4682446282,-2.5918139392,-440,-458,-29
-0.4630000000,2.5020000000,0.2950000000,-8.3915430436,-5.5431657043,-4.6687557491,0.2036799237,2.3853414887,-2.5918139392,-414,-484,-47
-0.5950000000,2.7820000000,0.2910000000,-8.4910268110,-6.3844144038,-4.2778019966,0.2771582852,2.2984240920,-2.6022859147,-389,-504,-70
-0.7220000000,3.0730000000,0.2480000000,-8.6533424314,-7.1418872992,-3.4889131747,0.3501130480,2.2038272465,-2.6319565120,-370,-517,-89
-0.8220000000,3.3280000000,0.1490000000,-8.6952303334,-7.6427967945,-2.4766222086,0.4159119608,2.0989329584,-2.6790804018,-356,-533,-110
