accx,accy,accz,gyrx,gyry,gyrz,anglex,angley,anglez,magx,magy,magz
-0.0990000000,0.0250000000,-0.9990000000,-0.0017453293,-0.0017453293,0.0000000000,0.0989601686,3.1166344453,2.3230332344,-418,211,240
-0.0990000000,0.0250000000,-0.9990000000,0.0000000000,0.0000000000,0.0000000000,0.0989601686,3.1166344453,2.3230332344,-418,209,237
-0.0990000000,0.0240000000,-0.9990000000,-0.0017453293,0.0000000000,0.0000000000,0.0989601686,3.1166344453,2.3230332344,-423,210,238
-0.0990000000,0.0240000000,-1.0000000000,0.0000000000,0.0000000000,-0.0017453293,0.0989601686,3.1166344453,2.3230332344,-419,209,234
-0.0990000000,0.0250000000,-1.0000000000,0.0000000000,0.0000000000,-0.0017453293,0.0989601686,3.1166344453,2.3230332344,-422,211,240
-0.0990000000,0.0250000000,-1.0000000000,-0.0017453293,-0.0017453293,0.0017453293,0.0989601686,3.1166344453,2.3230332344,-419,210,237
-0.1000000000,0.0240000000,-1.0000000000,-0.0017453293,0.0000000000,0.0017453293,0.0989601686,3.1166344453,2.3230332344,-419,209,237
-0.1000000000,0.0240000000,-1.0010000000,0.0000000000,0.0000000000,0.0000000000,0.0989601686,3.1166344453,2.3230332344,-420,211,236
-0.1000000000,0.0240000000,-1.0010000000,0.0000000000,-0.0017453293,0.0000000000,0.0989601686,3.1166344453,2.3230332344,-421,210,238
-0.0990000000,0.0240000000,-1.0010000000,0.0000000000,-0.0017453293,0.0000000000,0.0989601686,3.1166344453,2.3230332344,-424,212,238
-0.0990000000,0.0240000000,-1.0010000000,0.0017453293,0.0000000000,0.0000000000,0.0989601686,3.1166344453,2.3230332344,-424,212,238
-0.0990000000,0.0230000000,-1.0000000000,0.0000000000,0.0000000000,0.0000000000,0.0989601686,3.1166344453,2.3230332344,-421,208,238
-0.0990000000,0.0230000000,-0.9990000000,-0.0034906585,0.0000000000,0.0000000000,0.0989601686,3.1166344453,2.3230332344,-422,209,242
-0.0980000000,0.0240000000,-0.9990000000,0.0000000000,0.0000000000,0.0000000000,0.0989601686,3.1166344453,2.3230332344,-419,208,239
-0.0980000000,0.0240000000,-0.9990000000,0.0000000000,0.0000000000,0.0000000000,0.0989601686,3.1166344453,2.3230332344,-421,212,238
-0.0990000000,0.0240000000,-0.9990000000,0.0000000000,-0.0017453293,-0.0017453293,0.0989601686,3.1166344453,2.3230332344,-423,210,235
-0.1000000000,0.0240000000,-0.9990000000,0.0000000000,-0.0017453293,0.0000000000,0.0989601686,3.1166344453,2.3230332344,-418,209,240
-0.1000000000,0.0240000000,-1.0000000000,-0.0017453293,0.0000000000,0.0017453293,0.0989601686,3.1166344453,2.3230332344,-418,212,234
-0.1000000000,0.0240000000,-1.0000000000,0.0000000000,-0.0034906585,-0.0017453293,0.0989601686,3.1166344453,2.3230332344,-419,209,238
-0.1000000000,0.0240000000,-0.9990000000,0.0000000000,0.0000000000,0.0000000000,0.0989601686,3.1166344453,2.3230332344,-419,206,239
-0.0990000000,0.0240000000,-0.9990000000,0.0000000000,0.0000000000,0.0000000000,0.0989601686,3.1166344453,2.3230332344,-420,208,241
-0.0990000000,0.0250000000,-1.0000000000,0.0034906585,0.0000000000,-0.0017453293,0.0989601686,3.1166344453,2.3230332344,-419,208,237
-0.0990000000,0.0250000000,-1.0000000000,-0.0017453293,0.0017453293,0.0000000000,0.0989601686,3.1166344453,2.3230332344,-421,210,237
-0.0980000000,0.0250000000,-1.0000000000,0.0000000000,0.0000000000,0.0000000000,0.0989601686,3.1166344453,2.3230332344,-420,206,236
-0.0980000000,0.0240000000,-1.0000000000,-0.0034906585,-0.0017453293,0.0000000000,0.0989601686,3.1166344453,2.3230332344,-418,208,236
-0.0980000000,0.0240000000,-1.0000000000,0.0000000000,0.0000000000,-0.0017453293,0.0989601686,3.1166344453,2.3230332344,-418,210,235
-0.0980000000,0.0250000000,-1.0000000000,-0.0017453293,0.0000000000,0.0000000000,0.0989601686,3.1166344453,2.3230332344,-417,210,237
-0.0990000000,0.0250000000,-0.9990000000,0.0000000000,0.0000000000,0.0034906585,0.0989601686,3.1166344453,2.3230332344,-424,208,239
-0.0990000000,0.0250000000,-0.9990000000,0.0000000000,0.0000000000,0.0000000000,0.0989601686,3.1166344453,2.3230332344,-420,208,235
-0.0980000000,0.0240000000,-0.9990000000,-0.0017453293,0.0000000000,-0.0017453293,0.0989601686,3.1166344453,2.3230332344,-422,209,241
-0.0980000000,0.0240000000,-0.9990000000,0.0017453293,0.0017453293,0.0000000000,0.0989601686,3.1166344453,2.3230332344,-417,208,240
-0.0980000000,0.0240000000,-0.9990000000,0.0000000000,0.0000000000,0.0017453293,0.0989601686,3.1166344453,2.3230332344,-421,208,236
-0.0980000000,0.0240000000,-1.0000000000,0.0000000000,0.0000000000,0.0000000000,0.0989601686,3.1166344453,2.3230332344,-417,210,236
-0.0990000000,0.0240000000,-1.0000000000,-0.0017453293,0.0000000000,0.0017453293,0.0989601686,3.1168089782,2.3230332344,-420,210,238
-0.0990000000,0.0240000000,-1.0000000000,0.0000000000,0.0000000000,0.0000000000,0.0989601686,3.1168089782,2.3230332344,-417,212,240
-0.0990000000,0.0240000000,-0.9990000000,0.0000000000,-0.0034906585,-0.0017453293,0.0989601686,3.1168089782,2.3230332344,-415,208,237
-0.0990000000,0.0240000000,-0.9990000000,0.0000000000,0.0000000000,0.0034906585,0.0989601686,3.1168089782,2.3230332344,-421,207,238
-0.0990000000,0.0240000000,-0.9990000000,0.0000000000,0.0000000000,0.0000000000,0.0989601686,3.1166344453,2.3230332344,-422,211,237
-0.0990000000,0.0240000000,-0.9990000000,0.0000000000,0.0000000000,-0.0017453293,0.0989601686,3.1166344453,2.3230332344,-417,209,235
-0.0990000000,0.0240000000,-0.9990000000,0.0000000000,0.0000000000,0.0000000000,0.0989601686,3.1166344453,2.3230332344,-422,210,239
-0.0980000000,0.0240000000,-0.9990000000,0.0000000000,0.0000000000,0.0000000000,0.0989601686,3.1166344453,2.3230332344,-423,210,239
-0.0980000000,0.0240000000,-1.0000000000,0.0000000000,0.0000000000,0.0000000000,0.0989601686,3.1168089782,2.3230332344,-420,210,237
-0.0980000000,0.0240000000,-1.0000000000,0.0000000000,0.0000000000,-0.0017453293,0.0989601686,3.1168089782,2.3230332344,-420,210,235
-0.0980000000,0.0240000000,-1.0000000000,0.0017453293,0.0017453293,-0.0017453293,0.0989601686,3.1168089782,2.3230332344,-422,211,235
-0.0980000000,0.0250000000,-1.0010000000,0.0000000000,0.0000000000,-0.0017453293,0.0989601686,3.1168089782,2.3230332344,-420,212,237
-0.0980000000,0.0250000000,-1.0010000000,0.0000000000,0.0000000000,0.0000000000,0.0987856357,3.1166344453,2.3230332344,-424,211,234
-0.0990000000,0.0240000000,-1.0000000000,0.0000000000,0.0000000000,0.0017453293,0.0987856357,3.1166344453,2.3230332344,-420,208,238
-0.0990000000,0.0240000000,-1.0000000000,0.0000000000,0.0000000000,0.0017453293,0.0987856357,3.1166344453,2.3230332344,-420,208,238
-0.0990000000,0.0250000000,-0.9990000000,0.0000000000,0.0000000000,0.0000000000,0.0987856357,3.1166344453,2.3230332344,-419,212,236
-0.1000000000,0.0250000000,-0.9990000000,-0.0017453293,0.0017453293,0.0034906585,0.0989601686,3.1166344453,2.3230332344,-420,206,238
-0.1000000000,0.0250000000,-0.9990000000,0.0000000000,0.0000000000,0.0000000000,0.0989601686,3.1166344453,2.3230332344,-421,210,240
-0.1000000000,0.0240000000,-0.9990000000,-0.0017453293,0.0000000000,0.0000000000,0.0989601686,3.1166344453,2.3230332344,-418,206,236
-0.0980000000,0.0240000000,-0.9980000000,0.0000000000,0.0000000000,-0.0017453293,0.0989601686,3.1166344453,2.3230332344,-423,210,241
-0.0980000000,0.0240000000,-0.9980000000,0.0000000000,-0.0017453293,0.0000000000,0.0989601686,3.1168089782,2.3230332344,-422,211,239
-0.0990000000,0.0240000000,-0.9980000000,0.0000000000,0.0000000000,0.0000000000,0.0989601686,3.1168089782,2.3230332344,-422,210,239
-0.1000000000,0.0240000000,-1.0000000000,0.0000000000,0.0000000000,0.0000000000,0.0989601686,3.1168089782,2.3230332344,-424,211,238
-0.1000000000,0.0240000000,-1.0000000000,0.0000000000,0.0000000000,0.0034906585,0.0989601686,3.1168089782,2.3230332344,-419,209,237
-0.0990000000,0.0240000000,-1.0000000000,-0.0017453293,0.0000000000,0.0017453293,0.0989601686,3.1168089782,2.3230332344,-421,208,240
-0.0990000000,0.0240000000,-1.0010000000,0.0000000000,0.0000000000,0.0017453293,0.0989601686,3.1168089782,2.3230332344,-417,208,233
-0.1000000000,0.0240000000,-1.0000000000,0.0000000000,0.0000000000,0.0000000000,0.0989601686,3.1168089782,2.3230332344,-418,211,236
-0.1000000000,0.0250000000,-0.9990000000,0.0000000000,0.0017453293,0.0000000000,0.0989601686,3.1168089782,2.3230332344,-418,209,236
-0.1000000000,0.0240000000,-1.0000000000,0.0000000000,0.0000000000,0.0017453293,0.0989601686,3.1166344453,2.3230332344,-420,210,239
-0.0990000000,0.0240000000,-1.0000000000,0.0000000000,-0.0017453293,0.0017453293,0.0989601686,3.1166344453,2.3230332344,-419,211,242
-0.0990000000,0.0240000000,-1.0000000000,0.0000000000,0.0000000000,0.0000000000,0.0989601686,3.1166344453,2.3230332344,-421,211,242
-0.0990000000,0.0240000000,-1.0000000000,0.0000000000,0.0017453293,0.0000000000,0.0989601686,3.1166344453,2.3230332344,-420,211,242
-0.0990000000,0.0250000000,-1.0000000000,-0.0017453293,-0.0017453293,0.0000000000,0.0989601686,3.1166344453,2.3230332344,-421,211,245
-0.0990000000,0.0250000000,-0.9990000000,-0.0017453293,0.0000000000,0.0000000000,0.0989601686,3.1166344453,2.3230332344,-417,209,238
-0.0990000000,0.0240000000,-0.9990000000,0.0000000000,0.0000000000,0.0000000000,0.0989601686,3.1166344453,2.3230332344,-417,209,240
-0.0990000000,0.0240000000,-0.9990000000,0.0000000000,0.0000000000,0.0000000000,0.0989601686,3.1166344453,2.3230332344,-419,212,237
-0.0990000000,0.0250000000,-0.9990000000,0.0000000000,0.0000000000,0.0017453293,0.0989601686,3.1166344453,2.3230332344,-419,207,233
-0.0990000000,0.0240000000,-1.0000000000,0.0000000000,0.0000000000,0.0000000000,0.0989601686,3.1166344453,2.3230332344,-420,209,240
-0.0990000000,0.0240000000,-1.0000000000,0.0000000000,0.0000000000,-0.0017453293,0.0989601686,3.1166344453,2.3230332344,-419,209,238
-0.0990000000,0.0240000000,-1.0000000000,0.0000000000,0.0000000000,0.0000000000,0.0989601686,3.1166344453,2.3230332344,-417,208,239
-0.0990000000,0.0240000000,-0.9990000000,0.0017453293,0.0000000000,0.0017453293,0.0989601686,3.1166344453,2.3230332344,-419,208,241
-0.0990000000,0.0240000000,-0.9990000000,0.0000000000,0.0000000000,0.0000000000,0.0989601686,3.1166344453,2.3230332344,-415,208,237
-0.0990000000,0.0240000000,-0.9990000000,0.0000000000,0.0000000000,0.0017453293,0.0989601686,3.1166344453,2.3230332344,-421,211,241
-0.0990000000,0.0250000000,-0.9980000000,0.0017453293,0.0000000000,0.0000000000,0.0989601686,3.1166344453,2.3230332344,-420,209,236
-0.0990000000,0.0240000000,-0.9980000000,0.0000000000,0.0000000000,0.0000000000,0.0989601686,3.1166344453,2.3230332344,-419,210,238
-0.0990000000,0.0250000000,-0.9990000000,0.0000000000,0.0000000000,0.0000000000,0.0989601686,3.1166344453,2.3230332344,-418,210,238
-0.0990000000,0.0250000000,-0.9990000000,0.0000000000,0.0000000000,0.0000000000,0.0989601686,3.1166344453,2.3230332344,-421,211,238
-0.0990000000,0.0250000000,-0.9990000000,0.0000000000,0.0000000000,0.0000000000,0.0989601686,3.1166344453,2.3230332344,-421,213,237
-0.0990000000,0.0240000000,-0.9990000000,0.0000000000,-0.0017453293,0.0000000000,0.0989601686,3.1166344453,2.3230332344,-420,209,237
-0.0980000000,0.0240000000,-0.9990000000,0.0017453293,0.0000000000,0.0000000000,0.0989601686,3.1166344453,2.3230332344,-421,211,238
-0.0980000000,0.0240000000,-0.9990000000,0.0000000000,0.0017453293,0.0000000000,0.0989601686,3.1166344453,2.3230332344,-418,208,236
-0.0980000000,0.0240000000,-0.9990000000,0.0000000000,0.0017453293,0.0000000000,0.0989601686,3.1166344453,2.3230332344,-420,210,242
-0.0980000000,0.0240000000,-0.9990000000,0.0000000000,0.0000000000,0.0000000000,0.0989601686,3.1166344453,2.3230332344,-416,209,237
-0.0990000000,0.0240000000,-1.0000000000,0.0000000000,-0.0017453293,0.0000000000,0.0989601686,3.1166344453,2.3230332344,-417,208,238
-0.0990000000,0.0240000000,-1.0000000000,0.0000000000,0.0017453293,0.0000000000,0.0989601686,3.1166344453,2.3230332344,-418,211,235
-0.1000000000,0.0240000000,-1.0000000000,0.0000000000,0.0017453293,-0.0017453293,0.0989601686,3.1166344453,2.3230332344,-420,213,235
-0.1000000000,0.0240000000,-1.0000000000,0.0017453293,0.0000000000,0.0017453293,0.0989601686,3.1166344453,2.3230332344,-417,211,231
-0.0990000000,0.0240000000,-1.0000000000,0.0000000000,0.0000000000,0.0000000000,0.0989601686,3.1166344453,2.3230332344,-422,213,234
-0.0990000000,0.0240000000,-1.0000000000,0.0000000000,-0.0052359878,0.0000000000,0.0989601686,3.1166344453,2.3230332344,-419,208,237
-0.0980000000,0.0240000000,-1.0000000000,0.0000000000,0.0000000000,0.0000000000,0.0989601686,3.1166344453,2.3230332344,-421,213,240
-0.0980000000,0.0240000000,-1.0000000000,0.0017453293,0.0000000000,0.0017453293,0.0989601686,3.1168089782,2.3230332344,-417,210,235
-0.0980000000,0.0240000000,-1.0000000000,0.0000000000,0.0017453293,0.0000000000,0.0989601686,3.1168089782,2.3230332344,-420,215,238
-0.0980000000,0.0240000000,-1.0000000000,0.0000000000,-0.0017453293,0.0000000000,0.0989601686,3.1168089782,2.3230332344,-419,213,237
-0.0980000000,0.0250000000,-1.0000000000,0.0017453293,0.0034906585,-0.0017453293,0.0989601686,3.1168089782,2.3230332344,-421,208,239
-0.0990000000,0.0250000000,-1.0000000000,0.0000000000,0.0017453293,0.0017453293,0.0987856357,3.1166344453,2.3230332344,-419,208,237
-0.0990000000,0.0250000000,-0.9990000000,-0.0017453293,0.0017453293,0.0000000000,0.0987856357,3.1166344453,2.3230332344,-415,210,238
-0.0990000000,0.0240000000,-0.9990000000,0.0000000000,0.0000000000,0.0000000000,0.0987856357,3.1166344453,2.3230332344,-418,208,238
-0.0990000000,0.0230000000,-0.9990000000,0.0000000000,0.0000000000,0.0017453293,0.0987856357,3.1166344453,2.3230332344,-419,206,237
-0.0990000000,0.0230000000,-1.0000000000,0.0000000000,-0.0017453293,-0.0017453293,0.0989601686,3.1168089782,2.3230332344,-419,210,235
-0.0990000000,0.0240000000,-1.0000000000,0.0000000000,0.0017453293,0.0000000000,0.0989601686,3.1168089782,2.3230332344,-423,208,239
-0.0990000000,0.0240000000,-1.0000000000,0.0000000000,0.0000000000,0.0000000000,0.0989601686,3.1168089782,2.3230332344,-423,211,238
-0.0990000000,0.0250000000,-1.0000000000,0.0000000000,0.0000000000,0.0000000000,0.0989601686,3.1168089782,2.3230332344,-421,211,235
-0.0990000000,0.0250000000,-1.0000000000,-0.0017453293,0.0000000000,0.0000000000,0.0989601686,3.1168089782,2.3230332344,-425,210,238
-0.0990000000,0.0250000000,-1.0000000000,0.0000000000,0.0017453293,0.0017453293,0.0989601686,3.1168089782,2.3230332344,-418,210,238
-0.1000000000,0.0240000000,-1.0000000000,-0.0017453293,0.0000000000,-0.0034906585,0.0989601686,3.1168089782,2.3230332344,-419,207,238
-0.0990000000,0.0240000000,-1.0000000000,0.0000000000,0.0000000000,-0.0017453293,0.0989601686,3.1168089782,2.3230332344,-417,211,239
-0.0990000000,0.0240000000,-1.0000000000,0.0000000000,0.0000000000,0.0000000000,0.0989601686,3.1168089782,2.3230332344,-420,212,238
-0.0990000000,0.0240000000,-0.9990000000,0.0000000000,0.0017453293,0.0000000000,0.0989601686,3.1168089782,2.3230332344,-418,211,235
-0.0990000000,0.0240000000,-0.9990000000,0.0000000000,0.0000000000,0.0017453293,0.0989601686,3.1168089782,2.3230332344,-420,208,234
-0.0990000000,0.0240000000,-0.9990000000,0.0000000000,0.0000000000,-0.0017453293,0.0989601686,3.1168089782,2.3230332344,-418,210,239
-0.0990000000,0.0240000000,-0.9990000000,0.0000000000,0.0000000000,0.0000000000,0.0989601686,3.1168089782,2.3230332344,-417,211,236
-0.0990000000,0.0240000000,-0.9990000000,0.0000000000,0.0000000000,-0.0017453293,0.0989601686,3.1168089782,2.3230332344,-418,207,239
-0.0980000000,0.0250000000,-0.9990000000,0.0000000000,-0.0017453293,0.0017453293,0.0989601686,3.1168089782,2.3230332344,-417,211,238
-0.0990000000,0.0250000000,-1.0000000000,0.0000000000,0.0000000000,0.0000000000,0.0989601686,3.1168089782,2.3230332344,-420,209,238
-0.0990000000,0.0240000000,-1.0000000000,0.0000000000,0.0000000000,0.0000000000,0.0989601686,3.1168089782,2.3230332344,-421,213,239
-0.0990000000,0.0240000000,-1.0000000000,-0.0017453293,0.0000000000,0.0000000000,0.0989601686,3.1168089782,2.3230332344,-424,210,234
-0.1000000000,0.0250000000,-0.9990000000,0.0034906585,0.0017453293,0.0000000000,0.0989601686,3.1168089782,2.3230332344,-421,210,235
-0.1000000000,0.0250000000,-0.9990000000,0.0000000000,0.0017453293,0.0000000000,0.0989601686,3.1168089782,2.3230332344,-422,207,240
-0.1000000000,0.0240000000,-0.9990000000,0.0000000000,0.0017453293,0.0000000000,0.0989601686,3.1168089782,2.3230332344,-421,207,237
-0.0990000000,0.0240000000,-0.9990000000,0.0017453293,0.0017453293,0.0017453293,0.0989601686,3.1168089782,2.3230332344,-420,208,240
-0.0990000000,0.0240000000,-0.9990000000,0.0000000000,0.0000000000,0.0017453293,0.0989601686,3.1168089782,2.3230332344,-422,209,240
-0.0990000000,0.0240000000,-0.9990000000,-0.0017453293,0.0000000000,0.0017453293,0.0989601686,3.1168089782,2.3230332344,-419,210,239
-0.0990000000,0.0240000000,-0.9990000000,0.0000000000,0.0000000000,0.0017453293,0.0989601686,3.1168089782,2.3230332344,-424,211,239
-0.0980000000,0.0240000000,-0.9990000000,-0.0017453293,0.0000000000,0.0000000000,0.0989601686,3.1168089782,2.3230332344,-418,209,236
-0.0980000000,0.0240000000,-0.9990000000,0.0000000000,0.0017453293,0.0017453293,0.0989601686,3.1168089782,2.3230332344,-417,211,238
-0.0980000000,0.0240000000,-0.9990000000,0.0000000000,-0.0017453293,-0.0017453293,0.0989601686,3.1168089782,2.3230332344,-417,207,237
-0.0990000000,0.0240000000,-0.9990000000,-0.0034906585,0.0000000000,0.0000000000,0.0989601686,3.1168089782,2.3230332344,-417,211,236
-0.0990000000,0.0240000000,-0.9990000000,0.0017453293,0.0000000000,-0.0034906585,0.0989601686,3.1168089782,2.3230332344,-418,211,237
-0.0990000000,0.0240000000,-0.9990000000,0.0017453293,0.0000000000,-0.0017453293,0.0989601686,3.1168089782,2.3230332344,-417,209,236
-0.1000000000,0.0240000000,-0.9990000000,0.0000000000,0.0000000000,0.0000000000,0.0989601686,3.1168089782,2.3230332344,-418,205,236
-0.1000000000,0.0240000000,-1.0000000000,0.0000000000,0.0000000000,-0.0017453293,0.0989601686,3.1168089782,2.3230332344,-424,208,232
-0.1000000000,0.0240000000,-0.9990000000,0.0000000000,-0.0017453293,-0.0017453293,0.0989601686,3.1168089782,2.3230332344,-423,211,233
-0.1000000000,0.0240000000,-1.0000000000,0.0017453293,-0.0017453293,0.0000000000,0.0989601686,3.1168089782,2.3230332344,-421,208,238
-0.0990000000,0.0240000000,-1.0000000000,-0.0017453293,-0.0017453293,0.0000000000,0.0989601686,3.1168089782,2.3230332344,-421,209,236
-0.0990000000,0.0250000000,-1.0000000000,0.0000000000,0.0000000000,0.0000000000,0.0989601686,3.1168089782,2.3230332344,-417,208,235
-0.0990000000,0.0240000000,-1.0000000000,0.0000000000,0.0034906585,0.0017453293,0.0989601686,3.1168089782,2.3230332344,-420,208,238
-0.0990000000,0.0240000000,-1.0000000000,0.0000000000,0.0017453293,-0.0017453293,0.0989601686,3.1168089782,2.3230332344,-416,205,238
-0.0990000000,0.0230000000,-1.0000000000,-0.0017453293,0.0000000000,0.0034906585,0.0989601686,3.1168089782,2.3230332344,-417,210,240
-0.0990000000,0.0230000000,-0.9990000000,-0.0017453293,-0.0017453293,0.0000000000,0.0989601686,3.1168089782,2.3230332344,-422,211,238
-0.0990000000,0.0230000000,-0.9990000000,0.0034906585,0.0000000000,-0.0017453293,0.0989601686,3.1168089782,2.3230332344,-412,210,238
-0.0990000000,0.0240000000,-1.0000000000,0.0000000000,0.0000000000,0.0000000000,0.0989601686,3.1168089782,2.3230332344,-416,210,242
-0.0990000000,0.0240000000,-1.0000000000,0.0017453293,0.0000000000,0.0000000000,0.0989601686,3.1168089782,2.3230332344,-416,208,237
-0.0990000000,0.0240000000,-1.0000000000,0.0000000000,-0.0034906585,-0.0017453293,0.0989601686,3.1168089782,2.3230332344,-418,210,237
-0.0990000000,0.0240000000,-0.9990000000,0.0000000000,0.0000000000,0.0000000000,0.0989601686,3.1168089782,2.3230332344,-421,209,239
-0.0990000000,0.0240000000,-0.9990000000,0.0000000000,0.0000000000,0.0017453293,0.0989601686,3.1168089782,2.3230332344,-418,211,236
-0.0980000000,0.0240000000,-0.9990000000,0.0000000000,0.0000000000,-0.0017453293,0.0989601686,3.1168089782,2.3230332344,-420,212,238
-0.0990000000,0.0240000000,-1.0000000000,0.0000000000,-0.0017453293,0.0000000000,0.0989601686,3.1168089782,2.3230332344,-418,210,235
-0.0990000000,0.0250000000,-1.0000000000,0.0000000000,0.0017453293,0.0000000000,0.0989601686,3.1168089782,2.3230332344,-417,211,242
-0.0990000000,0.0250000000,-1.0000000000,0.0000000000,0.0000000000,0.0000000000,0.0989601686,3.1168089782,2.3230332344,-420,209,237
-0.0990000000,0.0250000000,-1.0000000000,0.0000000000,0.0000000000,0.0000000000,0.0989601686,3.1168089782,2.3230332344,-419,211,239
-0.0990000000,0.0250000000,-1.0000000000,0.0000000000,0.0000000000,-0.0017453293,0.0989601686,3.1168089782,2.3230332344,-421,213,240
-0.0990000000,0.0250000000,-1.0000000000,0.0000000000,0.0000000000,0.0000000000,0.0989601686,3.1168089782,2.3230332344,-421,212,241
-0.0990000000,0.0240000000,-1.0000000000,0.0000000000,-0.0017453293,0.0000000000,0.0989601686,3.1168089782,2.3230332344,-422,213,239
-0.0980000000,0.0240000000,-1.0000000000,0.0000000000,0.0000000000,-0.0017453293,0.0989601686,3.1168089782,2.3230332344,-420,208,236
-0.0990000000,0.0230000000,-1.0000000000,0.0000000000,0.0017453293,-0.0017453293,0.0989601686,3.1168089782,2.3230332344,-422,211,238
-0.0980000000,0.0240000000,-1.0000000000,0.0000000000,0.0000000000,-0.0017453293,0.0989601686,3.1168089782,2.3230332344,-420,212,239
-0.0990000000,0.0240000000,-1.0000000000,0.0000000000,0.0000000000,0.0017453293,0.0989601686,3.1168089782,2.3230332344,-420,207,236
-0.0990000000,0.0240000000,-1.0000000000,0.0000000000,0.0000000000,-0.0017453293,0.0989601686,3.1168089782,2.3230332344,-419,211,237
-0.0990000000,0.0250000000,-0.9990000000,0.0000000000,0.0000000000,-0.0034906585,0.0989601686,3.1168089782,2.3230332344,-420,208,236
-0.1000000000,0.0250000000,-0.9990000000,0.0000000000,0.0000000000,0.0000000000,0.0989601686,3.1168089782,2.3230332344,-423,209,235
-0.1000000000,0.0250000000,-0.9990000000,0.0000000000,0.0000000000,0.0000000000,0.0989601686,3.1168089782,2.3230332344,-423,209,237
-0.0990000000,0.0250000000,-0.9990000000,-0.0034906585,0.0000000000,0.0000000000,0.0989601686,3.1168089782,2.3230332344,-420,208,234
-0.0990000000,0.0250000000,-0.9990000000,0.0017453293,0.0000000000,0.0000000000,0.0989601686,3.1168089782,2.3230332344,-418,209,237
-0.0990000000,0.0250000000,-0.9990000000,0.0000000000,0.0000000000,0.0000000000,0.0989601686,3.1168089782,2.3230332344,-416,208,238
-0.0990000000,0.0250000000,-0.9990000000,0.0000000000,0.0000000000,-0.0034906585,0.0989601686,3.1168089782,2.3230332344,-420,210,238
-0.0990000000,0.0240000000,-1.0000000000,-0.0017453293,0.0000000000,-0.0017453293,0.0989601686,3.1168089782,2.3230332344,-421,208,240
-0.1000000000,0.0240000000,-1.0000000000,-0.0017453293,0.0000000000,0.0000000000,0.0989601686,3.1168089782,2.3230332344,-421,209,236
-0.1000000000,0.0240000000,-1.0000000000,-0.0017453293,0.0000000000,0.0017453293,0.0989601686,3.1168089782,2.3230332344,-422,209,238
-0.1000000000,0.0240000000,-0.9990000000,0.0000000000,0.0000000000,0.0000000000,0.0989601686,3.1168089782,2.3230332344,-417,210,237
-0.1000000000,0.0230000000,-0.9990000000,0.0000000000,0.0000000000,0.0000000000,0.0989601686,3.1168089782,2.3230332344,-417,208,240
-0.1000000000,0.0240000000,-0.9990000000,0.0000000000,-0.0017453293,0.0000000000,0.0989601686,3.1168089782,2.3230332344,-420,212,239
-0.1000000000,0.0240000000,-0.9990000000,-0.0017453293,0.0017453293,0.0000000000,0.0991347015,3.1168089782,2.3230332344,-422,209,239
-0.0990000000,0.0240000000,-0.9990000000,0.0017453293,0.0000000000,0.0017453293,0.0991347015,3.1168089782,2.3230332344,-417,212,237
-0.0990000000,0.0240000000,-0.9990000000,0.0000000000,0.0000000000,0.0017453293,0.0991347015,3.1168089782,2.3230332344,-419,208,236
-0.0990000000,0.0240000000,-0.9990000000,0.0000000000,0.0000000000,0.0000000000,0.0991347015,3.1168089782,2.3230332344,-420,211,236
-0.0990000000,0.0230000000,-0.9980000000,0.0000000000,0.0000000000,0.0017453293,0.0991347015,3.1168089782,2.3230332344,-423,213,238
-0.0990000000,0.0230000000,-0.9990000000,-0.0017453293,-0.0017453293,0.0000000000,0.0991347015,3.1168089782,2.3230332344,-423,212,235
-0.1000000000,0.0240000000,-0.9990000000,0.0000000000,0.0000000000,0.0000000000,0.0991347015,3.1168089782,2.3230332344,-419,213,234
-0.1000000000,0.0240000000,-0.9980000000,0.0000000000,-0.0034906585,0.0000000000,0.0991347015,3.1168089782,2.3230332344,-420,209,237
-0.1000000000,0.0240000000,-0.9990000000,0.0000000000,0.0000000000,0.0000000000,0.0991347015,3.1168089782,2.3230332344,-419,213,237
-0.1000000000,0.0240000000,-1.0000000000,0.0000000000,0.0000000000,0.0017453293,0.0991347015,3.1168089782,2.3230332344,-419,208,238
-0.0990000000,0.0250000000,-1.0000000000,-0.0034906585,-0.0017453293,0.0000000000,0.0991347015,3.1168089782,2.3230332344,-418,213,235
-0.1000000000,0.0250000000,-1.0000000000,0.0017453293,0.0000000000,0.0000000000,0.0991347015,3.1168089782,2.3230332344,-418,209,236
-0.0990000000,0.0240000000,-1.0000000000,0.0017453293,0.0000000000,0.0000000000,0.0991347015,3.1168089782,2.3230332344,-420,210,236
-0.0990000000,0.0240000000,-1.0000000000,0.0017453293,0.0017453293,0.0000000000,0.0991347015,3.1168089782,2.3230332344,-423,211,239
-0.0990000000,0.0240000000,-1.0000000000,0.0000000000,0.0000000000,0.0000000000,0.0991347015,3.1168089782,2.3230332344,-418,214,237
-0.0990000000,0.0240000000,-0.9990000000,0.0000000000,0.0000000000,0.0000000000,0.0991347015,3.1168089782,2.3230332344,-424,214,235
-0.0990000000,0.0240000000,-1.0000000000,0.0000000000,0.0000000000,0.0000000000,0.0991347015,3.1168089782,2.3230332344,-419,214,235
-0.0990000000,0.0240000000,-1.0000000000,0.0000000000,0.0000000000,0.0000000000,0.0991347015,3.1168089782,2.3230332344,-419,209,236
-0.0990000000,0.0240000000,-0.9990000000,0.0000000000,-0.0034906585,0.0000000000,0.0991347015,3.1168089782,2.3230332344,-416,206,236
-0.0990000000,0.0240000000,-0.9990000000,0.0017453293,0.0034906585,0.0000000000,0.0991347015,3.1168089782,2.3230332344,-420,209,240
-0.0990000000,0.0230000000,-0.9990000000,0.0000000000,0.0000000000,0.0000000000,0.0991347015,3.1168089782,2.3230332344,-419,212,235
-0.0990000000,0.0230000000,-0.9990000000,0.0000000000,0.0000000000,0.0000000000,0.0991347015,3.1168089782,2.3230332344,-423,210,239
-0.0980000000,0.0230000000,-0.9990000000,-0.0017453293,0.0000000000,0.0000000000,0.0991347015,3.1168089782,2.3230332344,-422,211,238
-0.0980000000,0.0230000000,-0.9990000000,0.0000000000,0.0017453293,0.0017453293,0.0991347015,3.1168089782,2.3230332344,-423,211,237
-0.0990000000,0.0240000000,-0.9990000000,0.0000000000,0.0000000000,0.0000000000,0.0989601686,3.1168089782,2.3230332344,-421,211,236
-0.0990000000,0.0240000000,-0.9990000000,0.0000000000,0.0017453293,0.0000000000,0.0989601686,3.1168089782,2.3230332344,-417,208,239
-0.0990000000,0.0240000000,-0.9990000000,0.0000000000,0.0000000000,0.0000000000,0.0989601686,3.1168089782,2.3230332344,-419,211,235
-0.0990000000,0.0240000000,-0.9990000000,0.0000000000,0.0000000000,0.0000000000,0.0989601686,3.1168089782,2.3230332344,-419,208,239
-0.0990000000,0.0240000000,-0.9990000000,0.0000000000,0.0000000000,0.0000000000,0.0989601686,3.1169835111,2.3230332344,-421,209,238
-0.0990000000,0.0240000000,-0.9980000000,0.0000000000,-0.0034906585,0.0000000000,0.0989601686,3.1169835111,2.3230332344,-421,215,239
-0.0990000000,0.0240000000,-0.9980000000,0.0017453293,0.0000000000,0.0000000000,0.0989601686,3.1169835111,2.3230332344,-420,211,237
-0.0990000000,0.0230000000,-0.9990000000,0.0017453293,0.0017453293,0.0000000000,0.0989601686,3.1169835111,2.3230332344,-423,209,238
-0.0990000000,0.0230000000,-0.9990000000,0.0000000000,-0.0017453293,0.0000000000,0.0991347015,3.1169835111,2.3230332344,-417,209,238
-0.0990000000,0.0230000000,-0.9990000000,-0.0017453293,-0.0017453293,0.0000000000,0.0991347015,3.1169835111,2.3230332344,-422,208,243
-0.0990000000,0.0230000000,-0.9990000000,0.0000000000,0.0017453293,-0.0017453293,0.0991347015,3.1169835111,2.3230332344,-418,205,235
-0.0990000000,0.0230000000,-0.9990000000,0.0000000000,0.0034906585,0.0017453293,0.0991347015,3.1169835111,2.3230332344,-417,212,241
-0.0990000000,0.0240000000,-0.9990000000,0.0000000000,0.0000000000,0.0000000000,0.0991347015,3.1169835111,2.3230332344,-417,213,237
-0.1000000000,0.0240000000,-0.9990000000,0.0000000000,0.0000000000,0.0000000000,0.0991347015,3.1169835111,2.3230332344,-421,212,238
-0.0990000000,0.0240000000,-0.9990000000,0.0017453293,0.0000000000,0.0000000000,0.0991347015,3.1169835111,2.3230332344,-415,213,239
-0.0990000000,0.0240000000,-1.0000000000,-0.0017453293,-0.0017453293,0.0017453293,0.0991347015,3.1169835111,2.3230332344,-421,211,238
-0.0990000000,0.0250000000,-1.0010000000,0.0000000000,0.0017453293,0.0000000000,0.0991347015,3.1169835111,2.3230332344,-421,212,239
-0.0990000000,0.0250000000,-1.0010000000,0.0017453293,0.0017453293,0.0000000000,0.0991347015,3.1169835111,2.3230332344,-416,211,241
-0.0980000000,0.0250000000,-1.0010000000,0.0000000000,0.0000000000,-0.0017453293,0.0991347015,3.1169835111,2.3230332344,-421,210,237
-0.0990000000,0.0240000000,-1.0010000000,0.0000000000,0.0000000000,0.0000000000,0.0991347015,3.1169835111,2.3230332344,-418,211,237
-0.0990000000,0.0240000000,-1.0010000000,0.0000000000,0.0000000000,0.0000000000,0.0991347015,3.1169835111,2.3230332344,-419,211,236
-0.1000000000,0.0240000000,-1.0010000000,0.0000000000,0.0017453293,0.0000000000,0.0991347015,3.1169835111,2.3230332344,-417,214,235
-0.1000000000,0.0240000000,-1.0010000000,0.0000000000,-0.0017453293,0.0000000000,0.0991347015,3.1169835111,2.3230332344,-417,210,236
-0.0990000000,0.0250000000,-0.9990000000,0.0000000000,0.0000000000,0.0017453293,0.0991347015,3.1169835111,2.3230332344,-420,208,238
-0.0990000000,0.0250000000,-0.9990000000,-0.0017453293,0.0017453293,0.0000000000,0.0991347015,3.1169835111,2.3230332344,-419,210,238
-0.0990000000,0.0250000000,-0.9990000000,0.0000000000,0.0017453293,0.0000000000,0.0991347015,3.1169835111,2.3230332344,-417,210,236
-0.0980000000,0.0250000000,-0.9990000000,0.0017453293,-0.0017453293,0.0000000000,0.0991347015,3.1169835111,2.3230332344,-421,215,234
-0.0980000000,0.0250000000,-1.0000000000,-0.0017453293,0.0017453293,0.0000000000,0.0991347015,3.1169835111,2.3230332344,-418,213,238
-0.0980000000,0.0240000000,-1.0000000000,0.0000000000,0.0017453293,0.0000000000,0.0989601686,3.1169835111,2.3230332344,-421,213,237
-0.0980000000,0.0240000000,-1.0000000000,0.0000000000,0.0000000000,0.0000000000,0.0989601686,3.1169835111,2.3230332344,-421,205,238
-0.0990000000,0.0240000000,-0.9990000000,0.0017453293,0.0000000000,0.0000000000,0.0989601686,3.1169835111,2.3230332344,-415,210,236
-0.0990000000,0.0240000000,-0.9990000000,0.0000000000,-0.0017453293,0.0000000000,0.0989601686,3.1169835111,2.3230332344,-420,209,238
-0.1000000000,0.0240000000,-1.0000000000,0.0000000000,-0.0017453293,0.0000000000,0.0989601686,3.1168089782,2.3230332344,-421,208,237
-0.1000000000,0.0240000000,-1.0000000000,0.0000000000,-0.0034906585,0.0017453293,0.0989601686,3.1168089782,2.3230332344,-418,208,237
-0.1000000000,0.0240000000,-0.9990000000,0.0000000000,0.0000000000,0.0000000000,0.0989601686,3.1168089782,2.3230332344,-418,208,238
-0.1000000000,0.0240000000,-1.0000000000,0.0000000000,0.0000000000,0.0000000000,0.0989601686,3.1168089782,2.3230332344,-419,209,239
-0.1000000000,0.0240000000,-1.0000000000,0.0000000000,0.0017453293,0.0017453293,0.0991347015,3.1168089782,2.3230332344,-421,212,239
-0.1000000000,0.0240000000,-1.0000000000,-0.0052359878,0.0000000000,0.0000000000,0.0991347015,3.1168089782,2.3230332344,-421,212,234
-0.1000000000,0.0260000000,-0.9990000000,0.0000000000,0.0000000000,0.0017453293,0.0991347015,3.1168089782,2.3230332344,-418,209,237
-0.0960000000,0.0230000000,-0.9980000000,0.0000000000,0.0000000000,0.0000000000,0.0991347015,3.1168089782,2.3230332344,-423,206,240
-0.0960000000,0.0230000000,-1.0000000000,0.0000000000,-0.0017453293,0.0000000000,0.0991347015,3.1168089782,2.3230332344,-424,211,232
-0.0990000000,0.0240000000,-1.0000000000,0.0000000000,-0.0017453293,0.0034906585,0.0991347015,3.1169835111,2.3230332344,-415,208,239
-0.1010000000,0.0240000000,-1.0000000000,0.0000000000,0.0052359878,0.0000000000,0.0991347015,3.1169835111,2.3230332344,-419,208,238
-0.1000000000,0.0240000000,-1.0010000000,0.0000000000,0.0000000000,0.0000000000,0.0991347015,3.1169835111,2.3230332344,-420,209,238
-0.1000000000,0.0250000000,-1.0000000000,0.0000000000,0.0000000000,0.0000000000,0.0991347015,3.1169835111,2.3230332344,-419,211,238
-0.0990000000,0.0250000000,-1.0000000000,-0.0017453293,-0.0034906585,0.0000000000,0.0991347015,3.1169835111,2.3230332344,-420,206,235
-0.0990000000,0.0250000000,-1.0010000000,0.0000000000,0.0000000000,0.0000000000,0.0991347015,3.1169835111,2.3230332344,-419,208,234
-0.1020000000,0.0250000000,-1.0010000000,0.0000000000,0.0000000000,0.0000000000,0.0991347015,3.1169835111,2.3230332344,-420,208,234
-0.1030000000,0.0250000000,-1.0000000000,-0.0017453293,-0.0017453293,0.0000000000,0.0991347015,3.1169835111,2.3230332344,-418,211,237
-0.1010000000,0.0240000000,-0.9990000000,0.0000000000,-0.0017453293,-0.0017453293,0.0991347015,3.1168089782,2.3230332344,-419,206,235
-0.0990000000,0.0230000000,-0.9990000000,0.0034906585,0.0000000000,0.0000000000,0.0991347015,3.1168089782,2.3230332344,-415,211,238
-0.1000000000,0.0230000000,-0.9990000000,0.0000000000,0.0000000000,0.0000000000,0.0991347015,3.1168089782,2.3230332344,-420,207,236
-0.1010000000,0.0230000000,-0.9990000000,0.0000000000,0.0034906585,0.0000000000,0.0991347015,3.1168089782,2.3230332344,-417,208,233
-0.1010000000,0.0250000000,-0.9990000000,0.0000000000,0.0017453293,0.0000000000,0.0991347015,3.1168089782,2.3230332344,-418,211,238
-0.0990000000,0.0260000000,-1.0000000000,0.0000000000,-0.0017453293,0.0000000000,0.0991347015,3.1168089782,2.3230332344,-418,210,239
-0.0960000000,0.0270000000,-1.0000000000,-0.0034906585,0.0000000000,0.0000000000,0.0991347015,3.1168089782,2.3230332344,-421,213,240
-0.0960000000,0.0270000000,-1.0000000000,-0.0052359878,0.0000000000,0.0000000000,0.0991347015,3.1168089782,2.3230332344,-419,211,241
-0.0970000000,0.0260000000,-1.0000000000,-0.0017453293,0.0017453293,0.0000000000,0.0991347015,3.1168089782,2.3230332344,-420,209,238
-0.0970000000,0.0250000000,-1.0000000000,-0.0017453293,0.0000000000,0.0000000000,0.0991347015,3.1168089782,2.3230332344,-422,209,236
-0.0970000000,0.0260000000,-1.0000000000,0.0000000000,0.0000000000,0.0000000000,0.0991347015,3.1168089782,2.3230332344,-422,210,234
-0.0970000000,0.0260000000,-1.0000000000,-0.0034906585,0.0000000000,0.0000000000,0.0991347015,3.1168089782,2.3230332344,-421,211,237
-0.0980000000,0.0250000000,-1.0000000000,-0.0017453293,0.0017453293,0.0000000000,0.0991347015,3.1168089782,2.3230332344,-422,210,236
-0.1000000000,0.0230000000,-0.9990000000,0.0000000000,0.0000000000,0.0017453293,0.0991347015,3.1168089782,2.3230332344,-420,210,234
-0.1020000000,0.0210000000,-0.9990000000,0.0000000000,0.0000000000,-0.0017453293,0.0991347015,3.1168089782,2.3230332344,-421,210,235
-0.1030000000,0.0200000000,-0.9980000000,0.0017453293,0.0017453293,0.0000000000,0.0991347015,3.1168089782,2.3230332344,-416,212,238
-0.1040000000,0.0200000000,-0.9980000000,0.0000000000,0.0000000000,0.0000000000,0.0991347015,3.1168089782,2.3230332344,-416,205,241
-0.1040000000,0.0220000000,-0.9990000000,0.0000000000,0.0000000000,0.0017453293,0.0991347015,3.1168089782,2.3230332344,-418,213,236
-0.1030000000,0.0230000000,-0.9990000000,0.0000000000,0.0000000000,0.0017453293,0.0991347015,3.1168089782,2.3230332344,-417,209,240
-0.1010000000,0.0240000000,-0.9990000000,-0.0017453293,0.0000000000,0.0017453293,0.0991347015,3.1168089782,2.3230332344,-417,211,236
-0.0980000000,0.0250000000,-0.9990000000,0.0000000000,0.0017453293,0.0000000000,0.0991347015,3.1168089782,2.3230332344,-418,208,238
-0.0970000000,0.0280000000,-1.0010000000,-0.0017453293,0.0000000000,0.0000000000,0.0991347015,3.1168089782,2.3230332344,-420,210,238
-0.0970000000,0.0300000000,-1.0020000000,0.0000000000,0.0017453293,0.0000000000,0.0991347015,3.1168089782,2.3230332344,-420,211,235
-0.0970000000,0.0290000000,-1.0010000000,0.0000000000,0.0000000000,0.0000000000,0.0991347015,3.1168089782,2.3230332344,-421,209,236
-0.0960000000,0.0270000000,-1.0000000000,-0.0017453293,-0.0017453293,-0.0034906585,0.0991347015,3.1168089782,2.3230332344,-418,209,237
-0.0960000000,0.0250000000,-0.9990000000,-0.0017453293,0.0000000000,-0.0017453293,0.0991347015,3.1168089782,2.3230332344,-418,212,240
-0.0970000000,0.0240000000,-0.9990000000,-0.0034906585,0.0000000000,-0.0017453293,0.0991347015,3.1168089782,2.3230332344,-419,210,239
-0.1000000000,0.0220000000,-1.0000000000,-0.0017453293,-0.0017453293,-0.0017453293,0.0991347015,3.1168089782,2.3230332344,-416,208,241
-0.1030000000,0.0200000000,-0.9990000000,0.0000000000,0.0017453293,0.0000000000,0.0991347015,3.1168089782,2.3230332344,-419,209,241
-0.1040000000,0.0190000000,-0.9980000000,0.0000000000,0.0000000000,0.0000000000,0.0991347015,3.1168089782,2.3230332344,-421,209,237
-0.1030000000,0.0190000000,-0.9990000000,0.0000000000,0.0000000000,0.0000000000,0.0991347015,3.1168089782,2.3230332344,-422,212,238
-0.1010000000,0.0230000000,-1.0000000000,0.0000000000,0.0000000000,0.0000000000,0.0991347015,3.1168089782,2.3230332344,-423,209,237
-0.1010000000,0.0270000000,-1.0010000000,-0.0017453293,0.0000000000,-0.0017453293,0.0991347015,3.1168089782,2.3230332344,-421,210,239
-0.1010000000,0.0290000000,-1.0010000000,0.0000000000,0.0000000000,0.0000000000,0.0991347015,3.1168089782,2.3230332344,-425,211,239
-0.0990000000,0.0270000000,-1.0000000000,0.0000000000,0.0000000000,0.0000000000,0.0991347015,3.1168089782,2.3230332344,-421,207,237
-0.0970000000,0.0250000000,-0.9990000000,0.0000000000,0.0000000000,-0.0017453293,0.0991347015,3.1168089782,2.3230332344,-421,211,238
-0.0960000000,0.0240000000,-0.9980000000,-0.0017453293,-0.0017453293,0.0000000000,0.0991347015,3.1168089782,2.3230332344,-421,211,239
-0.0960000000,0.0250000000,-0.9980000000,0.0000000000,0.0000000000,0.0000000000,0.0991347015,3.1168089782,2.3230332344,-421,208,238
-0.0970000000,0.0250000000,-0.9990000000,0.0000000000,0.0017453293,0.0000000000,0.0991347015,3.1168089782,2.3230332344,-419,213,238
-0.0990000000,0.0230000000,-1.0000000000,0.0000000000,0.0000000000,-0.0017453293,0.0991347015,3.1168089782,2.3230332344,-419,210,237
-0.0990000000,0.0230000000,-1.0000000000,0.0000000000,0.0000000000,0.0017453293,0.0991347015,3.1168089782,2.3230332344,-415,210,236
-0.1010000000,0.0220000000,-1.0000000000,0.0000000000,0.0000000000,-0.0034906585,0.0991347015,3.1168089782,2.3230332344,-417,210,238
-0.1030000000,0.0240000000,-1.0000000000,0.0000000000,0.0000000000,0.0000000000,0.0991347015,3.1168089782,2.3230332344,-417,210,239
-0.1020000000,0.0260000000,-1.0000000000,0.0000000000,0.0000000000,-0.0017453293,0.0991347015,3.1168089782,2.3230332344,-416,207,238
-0.1000000000,0.0270000000,-1.0000000000,0.0000000000,0.0017453293,0.0000000000,0.0991347015,3.1168089782,2.3230332344,-420,208,238
-0.0990000000,0.0270000000,-1.0000000000,0.0000000000,0.0034906585,0.0000000000,0.0991347015,3.1168089782,2.3230332344,-422,215,235
-0.0980000000,0.0250000000,-1.0000000000,0.0000000000,0.0000000000,0.0000000000,0.0991347015,3.1168089782,2.3230332344,-421,213,239
-0.0980000000,0.0240000000,-1.0000000000,-0.0017453293,0.0000000000,0.0000000000,0.0991347015,3.1168089782,2.3230332344,-427,210,239
-0.0980000000,0.0230000000,-0.9990000000,0.0000000000,0.0034906585,0.0000000000,0.0991347015,3.1168089782,2.3230332344,-425,209,238
-0.0980000000,0.0230000000,-0.9990000000,0.0000000000,0.0000000000,0.0000000000,0.0991347015,3.1168089782,2.3230332344,-420,208,235
-0.0980000000,0.0250000000,-0.9990000000,0.0017453293,0.0000000000,0.0000000000,0.0991347015,3.1168089782,2.3230332344,-421,210,243
-0.0980000000,0.0260000000,-0.9990000000,-0.0034906585,0.0000000000,0.0000000000,0.0991347015,3.1168089782,2.3230332344,-423,211,237
-0.0990000000,0.0270000000,-0.9990000000,-0.0017453293,0.0000000000,0.0000000000,0.0991347015,3.1168089782,2.3230332344,-419,207,240
-0.0990000000,0.0270000000,-0.9990000000,-0.0017453293,0.0000000000,-0.0034906585,0.0991347015,3.1168089782,2.3230332344,-423,208,239
-0.1000000000,0.0250000000,-0.9990000000,0.0017453293,0.0017453293,0.0000000000,0.0991347015,3.1168089782,2.3230332344,-421,208,237
-0.1020000000,0.0230000000,-0.9980000000,0.0000000000,-0.0017453293,-0.0034906585,0.0991347015,3.1168089782,2.3230332344,-421,211,236
-0.1030000000,0.0200000000,-0.9970000000,0.0017453293,0.0000000000,0.0000000000,0.0991347015,3.1168089782,2.3230332344,-424,208,237
-0.1030000000,0.0200000000,-0.9970000000,0.0000000000,-0.0052359878,-0.0017453293,0.0991347015,3.1168089782,2.3230332344,-419,212,238
-0.1020000000,0.0230000000,-0.9990000000,0.0017453293,0.0000000000,0.0034906585,0.0991347015,3.1168089782,2.3230332344,-419,207,238
-0.0990000000,0.0260000000,-0.9990000000,-0.0034906585,0.0000000000,0.0017453293,0.0991347015,3.1168089782,2.3230332344,-421,210,238
-0.0980000000,0.0270000000,-1.0000000000,0.0000000000,0.0000000000,0.0000000000,0.0991347015,3.1168089782,2.3230332344,-419,208,239
-0.0970000000,0.0280000000,-1.0010000000,-0.0017453293,0.0017453293,0.0000000000,0.0991347015,3.1168089782,2.3230332344,-420,208,237
-0.0970000000,0.0270000000,-1.0000000000,0.0000000000,0.0000000000,0.0000000000,0.0991347015,3.1168089782,2.3230332344,-421,208,241
-0.0940000000,0.0260000000,-1.0010000000,-0.0017453293,-0.0087266463,0.0000000000,0.0991347015,3.1168089782,2.3230332344,-422,211,236
-0.0950000000,0.0260000000,-1.0010000000,0.0017453293,0.0000000000,0.0000000000,0.0991347015,3.1168089782,2.3230332344,-421,209,238
-0.0960000000,0.0260000000,-1.0000000000,-0.0017453293,-0.0017453293,0.0000000000,0.0991347015,3.1168089782,2.3230332344,-416,208,238
-0.0990000000,0.0230000000,-0.9970000000,-0.0157079633,0.0506145483,0.0052359878,0.0989601686,3.1168089782,2.3230332344,-419,207,238
-0.1040000000,0.0180000000,-0.9870000000,-0.0733038286,0.1361356817,0.0296705973,0.0980875040,3.1162853794,2.3230332344,-421,207,237
-0.1020000000,-0.0380000000,-0.9950000000,0.0017453293,0.0069813170,0.2042035225,0.0970403064,3.1157617807,2.3212879052,-419,207,239
-0.1320000000,-0.1380000000,-1.0020000000,0.0628318531,-0.1640609497,0.5340707511,0.0977384381,3.1157617807,2.3177972466,-419,210,236
-0.2290000000,-0.1670000000,-0.9900000000,0.0139626340,0.0383972435,0.4293509960,0.0986111027,3.1159363136,2.3125612589,-413,216,241
-0.2160000000,-0.0710000000,-1.0010000000,-0.0104719755,0.0645771823,0.4380776423,0.0977384381,3.1150636490,2.3090706004,-417,214,240
-0.1370000000,0.1020000000,-1.0000000000,0.1047197551,-0.0296705973,0.2827433388,0.0975639052,3.1155872477,2.3055799419,-414,217,235
-0.0400000000,0.1870000000,-1.0020000000,-0.0104719755,-0.0104719755,0.0244346095,0.0975639052,3.1157617807,2.3038346126,-415,215,238
0.0160000000,0.1920000000,-1.0070000000,0.0471238898,-0.0610865238,-0.0174532925,0.0979129710,3.1159363136,2.3038346126,-413,214,238
0.0000000000,0.1420000000,-1.0060000000,-0.0191986218,0.0069813170,0.0069813170,0.0982620369,3.1161108465,2.3038346126,-416,213,241
-0.0480000000,0.0850000000,-1.0080000000,-0.0191986218,-0.0104719755,0.0767944871,0.0980875040,3.1159363136,2.3038346126,-415,214,238
-0.1060000000,0.0230000000,-1.0090000000,-0.0645771823,-0.0575958653,0.2548180708,0.0986111027,3.1154127148,2.3020892834,-415,213,240
-0.1760000000,-0.0180000000,-1.0060000000,-0.0558505361,-0.0104719755,0.3700098014,0.0987856357,3.1143655173,2.2985986249,-414,213,245
-0.2060000000,-0.0170000000,-0.9980000000,-0.0855211333,-0.0575958653,0.3804817769,0.0989601686,3.1133183197,2.2951079664,-412,217,238
-0.1710000000,0.0320000000,-1.0030000000,-0.1500983157,-0.0925024504,0.2164208272,0.0996583003,3.1119220563,2.2916173079,-408,217,242
-0.0970000000,0.0780000000,-1.0140000000,-0.2338741198,-0.1832595715,-0.0558505361,0.1010545637,3.1100021941,2.2898719786,-410,215,238
-0.0140000000,0.1080000000,-1.0530000000,-0.5009094953,0.0000000000,-0.2687807048,0.1021017612,3.1068606015,2.2916173079,-409,213,241
0.0410000000,0.1270000000,-1.1340000000,-1.0140362954,0.0558505361,-0.4084070450,0.1017526954,3.1000538174,2.2951079664,-409,213,244
0.0460000000,0.1390000000,-1.2290000000,-1.4364059744,-0.0191986218,-0.4223696790,0.1017526954,3.0881855785,2.3003439541,-411,204,247
0.0260000000,0.1580000000,-1.2810000000,-1.5306537540,-0.0558505361,-0.3857177647,0.1024508271,3.0735248128,2.3038346126,-410,200,251
-0.0040000000,0.1570000000,-1.2270000000,-1.2391837689,-0.1815142422,-0.4869468613,0.1036725576,3.0597367117,2.3073252711,-411,198,255
-0.0540000000,0.1340000000,-1.0850000000,-0.7609635539,-0.2914699851,-0.3071779484,0.1064650844,3.0497883349,2.3125612589,-412,191,254
-0.0940000000,0.1680000000,-0.9070000000,-0.2076941810,-0.4886921906,-0.1780235837,0.1103048087,3.0449014130,2.3143065881,-410,185,255
-0.1400000000,0.1630000000,-0.7690000000,0.2321287905,-0.6003932627,-0.1937315470,0.1160643953,3.0452504789,2.3160519174,-409,187,257
-0.1460000000,0.1270000000,-0.7090000000,0.3961897402,-0.5637413484,-0.2967059728,0.1221730476,3.0487411374,2.3177972466,-407,186,262
-0.1160000000,0.1050000000,-0.8420000000,0.2722713633,-0.4223696790,-0.3996803987,0.1274090354,3.0527553947,2.3195425759,-407,185,262
-0.1160000000,0.1050000000,-0.8420000000,-0.2495820830,-0.2234021443,-0.5602506899,0.1312487597,3.0539771251,2.3247785637,-403,185,267
-0.2140000000,0.1250000000,-1.0050000000,-0.5602506899,-0.0698131701,-0.3176499239,0.1331686219,3.0504864666,2.3300145514,-407,183,263
-0.2480000000,0.0850000000,-1.1140000000,-0.7016223593,0.0174532925,0.0471238898,0.1333431549,3.0442032813,2.3300145514,-406,178,264
-0.2280000000,-0.0080000000,-1.1300000000,-0.6736970913,-0.1204277184,0.2181661565,0.1336922207,3.0370474314,2.3300145514,-408,178,267
-0.2200000000,0.0310000000,-1.0580000000,-0.6457718232,-0.0942477796,0.1082104136,0.1347394183,3.0300661144,2.3265238929,-406,175,267
-0.1930000000,0.0750000000,-0.9850000000,-0.5916666164,-0.0401425728,-0.0628318531,0.1354375500,3.0237829291,2.3265238929,-406,172,274
-0.1580000000,0.1200000000,-0.9580000000,-0.6143558967,-0.0034906585,-0.2234021443,0.1357866158,3.0180233425,2.3282692222,-408,167,272
-0.1210000000,0.1580000000,-0.9650000000,-0.7155849933,0.0907571211,-0.3630284844,0.1357866158,3.0119146902,2.3317598807,-403,167,271
-0.0890000000,0.1850000000,-0.9880000000,-0.8709192967,0.2391101075,-0.5061454831,0.1349139512,3.0047588402,2.3352505392,-406,165,273
-0.0680000000,0.2120000000,-1.0200000000,-1.1274826968,0.4694935688,-0.6859143960,0.1324704902,2.9958576610,2.3422318562,-405,159,275
-0.0660000000,0.2340000000,-1.0480000000,-1.4137166941,0.7557275661,-0.7941248097,0.1275835683,2.9843384880,2.3509585024,-411,152,274
-0.0900000000,0.2430000000,-1.0520000000,-1.6091935703,0.9634217471,-0.7417649321,0.1204277184,2.9703758540,2.3596851487,-417,143,280
-0.1170000000,0.2230000000,-1.0310000000,-1.6702800942,1.1187560505,-0.5951572749,0.1113520063,2.9550169566,2.3684117950,-421,133,276
-0.1280000000,0.1610000000,-0.9940000000,-1.6458454846,1.2688543662,-0.3490658504,0.1007054978,2.9391344604,2.3753931120,-424,131,273
-0.1190000000,0.0630000000,-0.9800000000,-1.6022122533,1.4241886696,-0.0017453293,0.0881391272,2.9232519642,2.3806290997,-429,122,273
-0.1290000000,-0.0300000000,-1.0440000000,-0.4834562028,0.2338741198,0.0366519143,0.0780162176,2.9129545216,2.3823744290,-434,115,273
-0.0990000000,-0.0140000000,-0.9310000000,-1.2601277199,-0.2914699851,0.0506145483,0.0787143493,2.9047514741,2.3806290997,-437,115,271
-0.0630000000,0.0430000000,-0.9660000000,-0.8482300165,-0.1710422667,0.0610865238,0.0811578102,2.8942794986,2.3806290997,-436,105,280
-0.0720000000,0.1290000000,-1.0140000000,-0.9791297104,0.1413716694,0.1204277184,0.0811578102,2.8855528523,2.3788837705,-436,105,280
-0.1130000000,0.2170000000,-1.0120000000,-1.0611601852,0.1169370599,0.2495820830,0.0790634151,2.8749063439,2.3788837705,-437,101,277
-0.1470000000,0.2970000000,-0.9810000000,-0.8587019920,-0.0488692191,0.3438298626,0.0778416846,2.8651325001,2.3753931120,-436,96,282
-0.0810000000,0.2830000000,-0.9570000000,-0.7155849933,-0.4555309348,0.6300638600,0.0792379480,2.8564058538,2.3701571242,-434,95,285
0.0730000000,0.2090000000,-0.9450000000,-0.5672320069,-0.3141592654,0.8901179185,0.0808087444,2.8494245368,2.3614304779,-430,94,288
0.1180000000,0.2120000000,-0.9520000000,-0.5777039824,-0.4031710572,0.7278022981,0.0816814090,2.8429668186,2.3527038317,-431,94,287
0.1010000000,0.2710000000,-0.9490000000,-0.5061454831,-0.3612831552,0.5393067389,0.0834267382,2.8368581662,2.3457225147,-423,92,289
0.0680000000,0.3560000000,-0.9060000000,-0.4555309348,-0.2111848395,0.3630284844,0.0849975346,2.8316221784,2.3404865269,-427,93,292
0.0260000000,0.4370000000,-0.8440000000,-0.3368485456,0.0000000000,0.2321287905,0.0851720675,2.8272588553,2.3369958684,-423,90,292
-0.0200000000,0.4880000000,-0.7970000000,-0.2652900463,0.1989675347,0.0872664626,0.0837758041,2.8241172627,2.3352505392,-419,92,295
-0.1120000000,0.4430000000,-0.7910000000,-0.1431169987,0.3159045946,-0.6771877498,0.0820304748,2.8223719334,2.3387411977,-420,94,292
-0.2010000000,0.4030000000,-0.8330000000,-0.2478367538,0.3909537524,-0.8569566627,0.0811578102,2.8214992688,2.3474678439,-423,86,290
-0.2340000000,0.4190000000,-0.9140000000,-0.5113814708,0.3839724354,-0.8360127117,0.0801106127,2.8185322090,2.3561944902,-426,86,290
-0.2430000000,0.4310000000,-1.0030000000,-0.7627088831,0.3490658504,-0.7609635539,0.0790634151,2.8129471554,2.3649211365,-430,79,289
-0.2290000000,0.4090000000,-1.0570000000,-0.9372418083,0.3769911184,-0.6667157743,0.0781907505,2.8050931738,2.3736477827,-434,74,292
-0.1860000000,0.3550000000,-1.0700000000,-1.0105456369,0.4415683008,-0.6091199089,0.0764454212,2.7960174617,2.3806290997,-438,66,285
-0.1280000000,0.2940000000,-1.0530000000,-0.9791297104,0.3839724354,-0.5742133239,0.0743510261,2.7864181508,2.3876104167,-438,60,290
-0.0720000000,0.2500000000,-1.0260000000,-0.8866272600,0.1832595715,-0.5497787144,0.0738274274,2.7775169716,2.3945917337,-440,55,289
-0.0100000000,0.2310000000,-0.9970000000,-0.8360127117,0.2059488517,-0.4956735076,0.0740019603,2.7693139241,2.3998277215,-440,55,289
0.0340000000,0.2270000000,-0.9660000000,-0.7417649321,0.2408554368,-0.4450589593,0.0734783615,2.7618090084,2.4050637092,-442,45,291
0.0350000000,0.2290000000,-0.9300000000,-0.5672320069,0.1745329252,-0.3874630939,0.0731292957,2.7555258230,2.4102996970,-447,43,295
-0.0090000000,0.2540000000,-0.8950000000,-0.3857177647,-0.0017453293,-0.2024581932,0.0733038286,2.7508134341,2.4137903555,-446,38,291
-0.0710000000,0.2930000000,-0.8790000000,-0.2146754980,-0.2583087293,0.0139626340,0.0747000920,2.7478463743,2.4137903555,-446,38,291
-0.1140000000,0.3220000000,-0.8810000000,-0.0506145483,-0.4904375198,0.1692969374,0.0778416846,2.7462755780,2.4120450263,-446,36,293
-0.1090000000,0.3360000000,-0.8940000000,0.0645771823,-0.5515240436,0.1989675347,0.0818559419,2.7461010451,2.4068090385,-440,38,294
-0.0310000000,0.3300000000,-0.9070000000,0.1204277184,-0.3752457892,0.0401425728,0.0858701992,2.7466246439,2.4050637092,-438,37,296
0.0950000000,0.3150000000,-0.9020000000,0.2076941810,-0.0698131701,-0.2094395102,0.0883136602,2.7481954402,2.4033183800,-438,37,296
0.1820000000,0.3010000000,-0.8770000000,0.4502949470,-0.0837758041,-0.5619960191,0.0898844565,2.7515115658,2.4068090385,-440,36,295
-0.0390000000,0.3260000000,-0.8570000000,0.8045967852,-0.4293509960,-0.9477137838,0.0954695101,2.7581438169,2.4137903555,-444,38,293
-0.2290000000,0.3090000000,-0.8160000000,1.2496557444,-0.3682644722,-0.4939281783,0.1021017612,2.7686157924,2.4190263433,-439,46,294
-0.2090000000,0.2410000000,-0.7520000000,1.7418385935,-0.4590215933,-0.2513274123,0.1068141502,2.7834510911,2.4207716725,-439,46,294
-0.2660000000,0.1870000000,-0.7180000000,2.1048670779,-0.5637413484,-0.2460914245,0.1125737368,2.8028242458,2.4207716725,-440,52,296
-0.2890000000,0.1630000000,-0.7130000000,1.8029251173,-0.9023352233,-0.0523598776,0.1199041196,2.8228955322,2.4207716725,-436,61,298
-0.2110000000,0.2450000000,-0.9250000000,1.3421581948,-1.0663961730,0.2391101075,0.1289798317,2.8384289625,2.4172810140,-433,69,295
-0.1930000000,0.3580000000,-1.1110000000,0.8464846872,-1.1641346111,0.3996803987,0.1389282085,2.8487264051,2.4102996970,-426,73,296
-0.1730000000,0.4160000000,-1.2150000000,0.4782202150,-1.0437068927,0.5113814708,0.1485275193,2.8543114587,2.4033183800,-423,78,300
-0.1140000000,0.4290000000,-1.2540000000,0.2356194490,-0.3822271062,0.2007128640,0.1546361717,2.8567549197,2.3963370630,-417,81,303
-0.0700000000,0.4460000000,-0.9600000000,0.0663225116,0.1204277184,-0.3438298626,0.1560324351,2.8585002489,2.3963370630,-419,79,299
-0.0930000000,0.5450000000,-0.9290000000,-0.2757620218,0.2792526803,-0.4485496178,0.1551597705,2.8585002489,2.4015730507,-419,79,299
-0.1240000000,0.5570000000,-0.9820000000,-0.3717551307,-0.0401425728,-0.5550147021,0.1548107047,2.8558822550,2.4068090385,-419,78,297
-0.1230000000,0.4960000000,-1.0950000000,-0.4886921906,-0.5201081171,-0.5166174586,0.1588249619,2.8525661295,2.4120450263,-418,79,297
-0.1180000000,0.4080000000,-1.1780000000,-0.7435102613,-0.7696902001,-0.3944444110,0.1666789436,2.8469810759,2.4137903555,-417,69,298
-0.1530000000,0.3640000000,-1.1920000000,-1.0925761117,-0.6143558967,-0.2583087293,0.1745329252,2.8382544296,2.4155356848,-417,69,298
-0.1930000000,0.3830000000,-1.1370000000,-1.6353735091,-0.0698131701,-0.0331612558,0.1788962483,2.8249899273,2.4155356848,-414,64,308
-0.2370000000,0.3930000000,-1.0530000000,-2.0490165418,0.5096361416,0.1396263402,0.1766273203,2.8066639701,2.4155356848,-414,55,309
-0.2560000000,0.3460000000,-0.9470000000,-2.0437805541,0.7400196028,0.1483529864,0.1701696021,2.7858945520,2.4155356848,-418,42,306
-0.2510000000,0.2510000000,-0.8540000000,-1.5603243513,0.4939281783,0.1815142422,0.1633628180,2.7673940620,2.4172810140,-418,42,306
-0.1950000000,0.1270000000,-0.7990000000,-0.4433136300,-0.3996803987,0.5375614096,0.1605702912,2.7557003560,2.4155356848,-417,33,308
-0.2130000000,0.0860000000,-0.7310000000,0.2548180708,-1.0227629417,0.5078908123,0.1656317460,2.7541295596,2.4068090385,-413,33,311
-0.2190000000,0.1840000000,-0.7220000000,0.5777039824,-1.1711159281,0.5480333851,0.1736602606,2.7563984877,2.3980823922,-408,38,316
-0.2060000000,0.2900000000,-0.7200000000,0.9215338451,-1.2828170002,0.6754424205,0.1827359727,2.7619835413,2.3876104167,-408,38,316
-0.1980000000,0.3570000000,-0.7210000000,1.3578661581,-1.4817845349,0.8552113335,0.1926843494,2.7708847205,2.3753931120,-400,41,320
-0.2100000000,0.3900000000,-0.7410000000,1.6807520697,-1.7872171540,0.9145525280,0.2045525883,2.7831020252,2.3614304779,-389,54,319
-0.1800000000,0.3860000000,-0.8010000000,1.8675022996,-2.0158552861,0.9826203689,0.2192133541,2.7975882580,2.3457225147,-376,63,322
-0.1410000000,0.3230000000,-0.8980000000,1.9216075064,-2.0420352248,0.6824237375,0.2354449161,2.8129471554,2.3300145514,-369,79,323
-0.1560000000,0.2410000000,-0.9470000000,1.7226399717,-1.9320794820,0.3281218994,0.2530727415,2.8288296516,2.3195425759,-368,81,319
-0.2160000000,0.2740000000,-0.9680000000,1.5044738152,-1.5498523758,0.3420845334,0.2687807048,2.8426177527,2.3090706004,-355,91,323
-0.2780000000,0.3040000000,-0.9550000000,1.3369222070,-1.3247049023,0.2862339973,0.2815216083,2.8548350575,2.3020892834,-338,108,322
-0.2880000000,0.3030000000,-0.9470000000,1.2548917322,-1.2182398179,0.1797689130,0.2932153143,2.8660051647,2.2968532956,-338,108,322
-0.2680000000,0.2980000000,-0.9400000000,1.1205013798,-0.9721483934,-0.0226892803,0.3036872898,2.8768262061,2.2916173079,-330,112,329
-0.2480000000,0.2880000000,-0.9290000000,1.0122909662,-0.8342673825,-0.2076941810,0.3125884690,2.8871236486,2.2916173079,-330,119,324
-0.2500000000,0.2750000000,-0.9300000000,1.0000736614,-0.8482300165,-0.2949606436,0.3213151153,2.8972465583,2.2916173079,-320,127,322
-0.2650000000,0.2490000000,-0.9330000000,0.9546951008,-0.8203047484,-0.3036872898,0.3300417616,2.9073694680,2.2916173079,-320,127,322
-0.2810000000,0.2180000000,-0.9480000000,0.8656833090,-0.8220500777,-0.3403392041,0.3387684078,2.9169687789,2.2933626371,-315,132,324
-0.2920000000,0.1900000000,-0.9790000000,0.8028514559,-0.9302604913,-0.4712388980,0.3480186528,2.9258699580,2.2951079664,-314,136,324
-0.2990000000,0.1520000000,-0.9950000000,0.8342673825,-1.0751228192,-0.6108652382,0.3588396942,2.9351202031,2.2985986249,-315,142,322
-0.3060000000,0.0910000000,-0.9820000000,0.7714355294,-0.9442231253,-0.6405358355,0.3705334002,2.9450685798,2.3038346126,-315,142,322
-0.3320000000,0.0050000000,-0.9720000000,0.4415683008,-0.5044001538,-0.5794493117,0.3789109806,2.9532716273,2.3090706004,-308,145,325
-0.3840000000,-0.0710000000,-1.0020000000,-0.0558505361,-0.0663225116,-0.6859143960,0.3830997708,2.9576349504,2.3143065881,-308,146,322
-0.4340000000,-0.1190000000,-1.0410000000,-0.6003932627,0.2617993878,-0.5288347634,0.3834488367,2.9578094834,2.3212879052,-310,145,326
-0.5120000000,0.2170000000,-1.0800000000,-1.1135200628,0.6230825430,0.3735004599,0.3794345794,2.9494319029,2.3230332344,-310,145,326
-0.5180000000,0.5530000000,-1.0810000000,-1.2461650859,0.6510078110,0.1570796327,0.3722787295,2.9366909994,2.3212879052,-314,137,328
-0.4160000000,0.5420000000,-1.0190000000,-1.2007865254,0.4328416545,-0.2548180708,0.3668682088,2.9251718263,2.3230332344,-312,134,331
-0.3340000000,0.4460000000,-0.9920000000,-1.1571532941,0.1727875959,-0.3141592654,0.3644247478,2.9148743838,2.3265238929,-316,127,334
-0.3020000000,0.3760000000,-1.0110000000,-1.2042771839,-0.1169370599,-0.4712388980,0.3647738137,2.9044024082,2.3317598807,-318,116,331
-0.2900000000,0.3010000000,-1.0030000000,-1.1170107213,-0.4136430327,-0.8290313947,0.3687880709,2.8946285644,2.3369958684,-317,113,332
-0.3080000000,0.2640000000,-0.9750000000,-1.0279989294,-0.7382742736,-1.1100294043,0.3766420526,2.8871236486,2.3457225147,-318,103,333
-0.3550000000,0.2660000000,-0.9320000000,-1.0402162342,-0.9581857593,-1.3526301703,0.3879866927,2.8808404633,2.3561944902,-315,92,338
-0.4110000000,0.2590000000,-0.9090000000,-1.2007865254,-1.1100294043,-1.6510814724,0.4017747938,2.8745572780,2.3684117950,-315,92,338
-0.4680000000,0.2320000000,-0.9210000000,-1.4782938764,-1.1135200628,-1.9722220548,0.4173082242,2.8677504940,2.3841197582,-312,80,343
-0.5220000000,0.1810000000,-0.9600000000,-1.8849555922,-0.9843656981,-2.3073252711,0.4333652533,2.8591983806,2.4033183800,-313,72,347
-0.5690000000,0.1310000000,-1.0030000000,-2.3108159296,-0.8342673825,-2.4975661596,0.4490732165,2.8480282734,2.4260076603,-314,47,356
-0.5990000000,0.1250000000,-1.0580000000,-2.5970499270,-0.5986479334,-2.4644049038,0.4633849164,2.8340656394,2.4504422698,-314,47,356
-0.6040000000,0.1720000000,-1.1350000000,-2.7838001569,-0.3473205211,-2.2549653936,0.4754276882,2.8180086103,2.4731315501,-307,28,359
-0.5880000000,0.2460000000,-1.2150000000,-3.0211649352,-0.2391101075,-2.0088739690,0.4850269991,2.7993335873,2.4958208304,-310,10,360
-0.5550000000,0.3200000000,-1.2870000000,-3.3143802495,-0.1396263402,-1.8570303241,0.4935791125,2.7771679058,2.5150194521,-310,-17,365
-0.5140000000,0.3760000000,-1.3520000000,-3.6896260387,0.1483529864,-1.8552849949,0.5005604295,2.7518606316,2.5342180739,-310,-17,365
-0.4930000000,0.4080000000,-1.4130000000,-4.1748275708,0.4363323130,-1.7575465568,0.5050982855,2.7227136331,2.5551620249,-312,-47,358
-0.5280000000,0.4150000000,-1.4480000000,-4.7176249681,0.6928957130,-1.5044738152,0.5070181477,2.6881561139,2.5743606467,-312,-47,358
-0.6610000000,0.4330000000,-1.4180000000,-5.2464597315,1.0122909662,-1.2426744274,0.5059709502,2.6476644753,2.5935592685,-325,-115,350
-0.6610000000,0.4330000000,-1.4180000000,-5.7752944948,1.2985249635,-0.9686577349,0.5016076270,2.6014132501,2.6110125610,-325,-115,350
-0.7380000000,0.4860000000,-1.2820000000,-6.3163465630,1.4940018397,-0.6649704450,0.4942772442,2.5492279055,2.6267205243,-325,-115,350
-0.7380000000,0.5250000000,-1.1980000000,-6.8329640216,1.6318828506,-0.3543018382,0.4846779333,2.4909339084,2.6424284875,-341,-209,318
-0.7180000000,0.5840000000,-1.1290000000,-7.2553337005,1.6947147037,-0.0802851456,0.4731587602,2.4270548578,2.6563911215,-341,-209,318
-0.6990000000,0.6540000000,-1.0870000000,-7.5677476366,1.7627825445,0.2530727415,0.4600687908,2.3588124841,2.6703537556,-353,-271,283
-0.6890000000,0.7250000000,-1.0730000000,-7.8016217564,1.8517943364,0.7382742736,0.4445353605,2.2870794518,2.6808257311,-364,-307,264
-0.6870000000,0.7990000000,-1.0780000000,-7.9953533034,1.9896753473,1.2915436465,0.4248131399,2.2123793598,2.6895523773,-370,-334,235
-0.6880000000,0.8720000000,-1.0860000000,-8.1192716803,2.1851522235,1.8011797881,0.4002039975,2.1347122081,2.7000243528,-383,-361,206
-0.6940000000,0.9290000000,-1.0850000000,-8.1035637170,2.3579398194,2.2410027596,0.3719296636,2.0584413198,2.7104963283,-383,-361,206
-0.7050000000,0.9650000000,-1.0720000000,-7.9813906694,2.4836035256,2.6441738168,0.3396410724,1.9821704315,2.7227136331,-409,-393,149
-0.7150000000,0.9760000000,-1.0510000000,-7.7597338544,2.6075219025,3.0264009230,0.3042108886,1.9078194054,2.7366762671,-420,-407,117
-0.7240000000,0.9570000000,-1.0310000000,-7.4263759672,2.7401669256,3.4313173094,0.2658136451,1.8364354389,2.7541295596,-438,-408,83
-0.7240000000,0.9110000000,-1.0240000000,-7.0389128733,2.9775317039,3.8013271108,0.2242748089,1.7688911969,2.7733281814,-457,-413,48
-0.7150000000,0.8490000000,-1.0270000000,-6.7195176202,3.3597588101,4.0962877544,0.1802925117,1.7051866792,2.7977627909,-457,-413,48
-0.7210000000,0.7760000000,-1.0190000000,-6.4420102691,3.7978364523,4.2202061313,0.1352630170,1.6441001554,2.8291787175,-496,-410,-16
-0.7280000000,0.6980000000,-1.0000000000,-5.9585540663,4.2097341558,4.2708206796,0.0912807199,1.5861552242,2.8675759610,-509,-398,-51
-0.7540000000,0.6460000000,-0.9600000000,-5.2516957193,4.5989425790,4.3319072034,0.0488692191,1.5327481491,2.9129545216,-527,-392,-87
-0.7640000000,0.6100000000,-0.9010000000,-4.2812926551,5.0684361478,4.3912483980,0.0083775804,1.4857987922,2.9635690699,-540,-373,-118
-0.7650000000,0.5930000000,-0.8140000000,-2.9705503869,5.4489179247,4.4296456416,-0.0296705973,1.4480996804,3.0194196060,-540,-373,-118
-0.7640000000,0.5940000000,-0.6910000000,-1.4172073526,5.6862827030,4.4645522266,-0.0659734457,1.4222688075,3.0805061298,-563,-342,-169
-0.7730000000,0.6120000000,-0.5190000000,0.2321287905,5.7822758119,4.4732788729,-0.1012290966,1.4104005685,-3.1363566658,-572,-322,-197
-0.7690000000,0.6340000000,-0.2820000000,1.8989182262,5.6915186908,4.4069563613,-0.1359611487,1.4124949636,-3.0717794835,-580,-304,-215
-0.7510000000,0.6530000000,0.0120000000,3.5412730523,5.3843407424,4.2533673871,-0.1703441350,1.4294246574,-3.0106929597,-582,-287,-228
-0.6990000000,0.6750000000,0.3420000000,5.0789081233,4.8397980158,4.0439278769,-0.2050761871,1.4610151168,-2.9530970944,-582,-287,-228
-0.5990000000,0.7090000000,0.6760000000,6.4437555984,4.0962877544,3.7960911231,-0.2401573051,1.5070918091,-2.9024825461,-589,-267,-251
-0.4640000000,0.7710000000,0.9480000000,7.5258597346,3.3510321638,3.5726889788,-0.2755874889,1.5664330037,-2.8640853025,-589,-259,-252
-0.3160000000,0.8530000000,1.0850000000,8.2623886789,2.8850292535,3.4906585040,-0.3115412715,1.6360716408,-2.8326693760,-594,-252,-249
-0.1880000000,0.9450000000,1.0590000000,8.7615528450,2.7436575841,3.5150931135,-0.3492403833,1.7126915950,-2.8064894372,-599,-246,-250
-0.1090000000,1.0370000000,0.9090000000,9.0949107321,2.8082347665,3.6320301734,-0.3892084232,1.7936748723,-2.7838001569,-599,-246,-250
-0.0760000000,1.1140000000,0.7080000000,9.2572263526,2.9548424236,3.6791540632,-0.4319689899,1.8774506764,-2.7646015352,-601,-233,-248
-0.0480000000,1.1560000000,0.5040000000,9.3165675471,3.3789574319,3.6215581979,-0.4769984846,1.9622736780,-2.7454029134,-605,-226,-248
-0.0150000000,1.1640000000,0.3140000000,9.3357661689,3.8327430374,3.6128315516,-0.5246459731,2.0455258833,-2.7262042916,-606,-219,-258
-0.0640000000,1.1100000000,0.2140000000,9.5766216057,3.9584067435,3.7192966360,-0.5757841202,2.1298252862,-2.7070056698,-604,-213,-266
-0.1190000000,1.0070000000,0.2100000000,9.9710660166,3.8344883666,3.5709436496,-0.6283185307,2.2191861439,-2.6930430358,-604,-213,-266
-0.1260000000,0.8730000000,0.2650000000,10.4370689269,3.5447637108,3.0141836182,-0.6777113485,2.3155283186,-2.6843163896,-603,-207,-271
-0.0970000000,0.7300000000,0.3510000000,10.8681652522,3.1049407393,2.2322761133,-0.7202973823,2.4178046128,-2.6790804018,-600,-208,-273
-0.0420000000,0.5870000000,0.4430000000,11.1962871515,2.5656340004,1.3997540601,-0.7543313027,2.5247932959,-2.6738444141,-596,-219,-266
0.0460000000,0.4650000000,0.5360000000,11.1055300304,1.7924531418,0.6038839212,-0.7787659122,2.6333527754,-2.6703537556,-596,-229,-261
0.1640000000,0.4200000000,0.6470000000,10.5993845474,0.6998770300,-0.1605702912,-0.7918558816,2.7385961293,-2.6651177678,-596,-229,-261
0.2970000000,0.4600000000,0.7640000000,9.7790797989,-0.4450589593,-0.7330382858,-0.7920304146,2.8361600345,-2.6581364508,-592,-253,-231
0.4300000000,0.5580000000,0.8480000000,8.7074476382,-1.5236724370,-0.9686577349,-0.7808603073,2.9227283654,-2.6529004630,-590,-263,-211
0.5250000000,0.6630000000,0.8790000000,7.6009088924,-2.5097834644,-0.7941248097,-0.7597418234,2.9991737866,-2.6441738168,-592,-271,-183
0.5800000000,0.7390000000,0.8230000000,6.4175756596,-3.3580134808,-0.2234021443,-0.7300712261,3.0674161604,-2.6406831583,-593,-275,-159
0.6230000000,0.7700000000,0.6580000000,5.0370202213,-3.7908551353,0.6073745797,-0.6942919764,3.1279790854,-2.6459191460,-593,-275,-159
0.6710000000,0.7520000000,0.3780000000,3.5971235884,-3.8379790251,1.4538592669,-0.6560692658,-3.1038935417,-2.6598817800,-601,-269,-112
0.7050000000,0.7010000000,0.0540000000,2.2462387473,-3.8013271108,2.1397736629,-0.6169738906,-3.0627037714,-2.6790804018,-603,-257,-90
0.6810000000,0.6140000000,-0.1990000000,1.2967796342,-3.9810960238,2.6616271093,-0.5763077190,-3.0314623778,-2.7035150113,-602,-243,-68
0.5760000000,0.4860000000,-0.3250000000,0.7888888219,-4.5204027627,3.0351275692,-0.5312782243,-3.0066787024,-2.7314402794,-601,-227,-48
0.4190000000,0.3170000000,-0.3500000000,0.3857177647,-5.3756140961,3.1677725924,-0.4787438138,-2.9874800806,-2.7576202182,-601,-227,-48
0.2390000000,0.1310000000,-0.3310000000,-0.4171336912,-6.3617251235,3.0787608005,-0.4162610266,-2.9763099734,-2.7820548277,-599,-204,1
0.0700000000,-0.0340000000,-0.3300000000,-2.0594885174,-7.1698125672,2.8204520712,-0.3450515931,-2.9796260990,-2.8012534495,-590,-196,37
-0.2360000000,-0.1640000000,-0.4870000000,-4.2690753504,-7.8190750489,2.5900686100,-0.2670353756,-3.0047588402,-2.8187067420,-582,-193,63
-0.2360000000,-0.1640000000,-0.4870000000,-6.7264989372,-8.1855941919,2.4312436480,-0.1848303678,-3.0546752568,-2.8344147052,-568,-196,90
-0.3580000000,-0.1170000000,-0.6800000000,-9.3026049131,-8.3514004708,2.1764255772,-0.1012290966,-3.1307716122,-2.8536133270,-568,-196,90
-0.5960000000,0.3360000000,-1.1890000000,-11.4685585149,-8.2205007769,2.0943951024,-0.0190240888,3.0506609996,-2.8780479365,-527,-234,130
-0.6870000000,0.6650000000,-1.4250000000,-13.0079389151,-7.7370445741,2.3614304779,0.0567232007,2.9279643531,-2.9112091923,-510,-258,141
-0.6950000000,0.9910000000,-1.6020000000,-13.9085288091,-7.1523592747,2.8029987787,0.1211258501,2.7893852105,-2.9565877529,-497,-288,140
-0.6650000000,1.2590000000,-1.6840000000,-14.2436320255,-6.7456975590,3.0805061298,0.1720894642,2.6403340924,-3.0124382889,-482,-317,131
-0.6850000000,1.4290000000,-1.6670000000,-14.1127323316,-6.4926248174,3.0403635570,0.2104867078,2.4863960524,-3.0752701420,-482,-317,131
-0.7590000000,1.5000000000,-1.5580000000,-13.6554560676,-6.3617251235,2.6982790236,0.2389355746,2.3326325453,3.1398473243,-464,-368,100
-0.8560000000,1.5100000000,-1.3840000000,-12.9468523913,-6.1767202228,2.1397736629,0.2597049927,2.1814870321,3.0735248128,-454,-394,85
-0.9330000000,1.4830000000,-1.1720000000,-12.1195663258,-6.0580378337,1.4852751934,0.2752384230,2.0402898956,3.0089476304,-444,-414,58
-0.9830000000,1.4300000000,-0.9510000000,-11.1875605053,-6.0877084310,0.8831366015,0.2878047937,1.9060740761,2.9461157774,-435,-435,42
-1.0090000000,1.3650000000,-0.7710000000,-10.3044239038,-6.0911990895,0.4642575810,0.2975786375,1.7802358370,2.8832839243,-435,-435,42
-1.0170000000,1.2920000000,-0.6830000000,-9.5853482520,-5.8433623357,0.2373647783,0.3031636911,1.6622515796,2.8204520712,-414,-463,-2
-1.0000000000,1.2010000000,-0.7010000000,-8.9919363063,-5.2813663165,0.0366519143,0.3036872898,1.5515977050,2.7611108767,-402,-482,-22
-0.9530000000,1.0670000000,-0.7790000000,-8.3566364585,-4.4226643246,-0.2879793266,0.3012438289,1.4493214109,2.7104963283,-399,-490,-46
-0.8950000000,0.8670000000,-0.8570000000,-7.6253435020,-3.4871678455,-0.7382742736,0.2993239667,1.3568189605,2.6686084263,-393,-497,-63
-0.8420000000,0.6050000000,-0.8970000000,-6.7212629494,-2.7192229746,-1.3439035240,0.3010692960,1.2744394198,2.6337018413,-393,-497,-63
-0.7890000000,0.3100000000,-0.9290000000,-5.5780722894,-1.8552849949,-2.2060961745,0.3096214093,1.2035790522,2.6057765732,-372,-515,-106
-0.7730000000,0.0430000000,-0.9800000000,-4.3650684592,-0.6579891280,-3.3545228223,0.3293436299,1.1458086539,2.5813419637,-354,-524,-127
-0.8090000000,-0.1240000000,-1.0490000000,-3.1956978604,0.6352998477,-4.5745079695,0.3642502149,1.1013027580,2.5621433419,-332,-533,-140
-0.8900000000,-0.1350000000,-1.0960000000,-2.1607176140,1.7104226670,-5.4733525343,0.4138175656,1.0686651010,2.5481807079,-308,-548,-156
-0.9920000000,0.0420000000,-1.1150000000,-1.3561208288,2.6686084263,-5.9323741275,0.4740314248,1.0464994195,2.5377087324,-308,-548,-156
-1.0750000000,0.4040000000,-1.1050000000,-0.8813912723,3.6372661612,-5.9917153221,0.5412266010,1.0334094501,2.5324727446,-248,-560,-173
-1.1110000000,0.8580000000,-1.0550000000,-0.5846852994,4.6862090416,-5.6077428867,0.6124360345,1.0293951928,2.5394540617,-222,-565,-183
-1.1120000000,1.2710000000,-0.9660000000,-0.3944444110,5.6199601914,-4.8729592716,0.6841690668,1.0375982403,2.5603980127,-197,-569,-188
-1.1410000000,1.5490000000,-0.8560000000,-0.4206243497,6.0545471752,-3.8659042932,0.7517133088,1.0585421913,2.5987952562,-172,-568,-192
-1.2090000000,1.6820000000,-0.7670000000,-0.4310963252,6.5833819385,-2.9164451801,0.8115781022,1.0929251776,2.6529004630,-172,-568,-192
-1.2670000000,1.7590000000,-0.6810000000,-0.4974188368,7.1663219087,-2.2252947963,0.8646361114,1.1442378576,2.7279496209,-140,-574,-200
-1.3130000000,1.8450000000,-0.5970000000,-0.3682644722,7.7161006231,-1.5271630955,0.9107128037,1.2147491594,2.8274333882,-132,-571,-201
-1.3740000000,1.9870000000,-0.4990000000,-0.1797689130,8.1925755089,-0.5532693729,0.9456193887,1.3084733402,2.9478611066,-128,-572,-203
-1.4320000000,2.1960000000,-0.3780000000,0.0052359878,8.6027278831,0.7941248097,0.9623745495,1.4233160050,3.0892327760,-123,-567,-201
-1.4850000000,2.4250000000,-0.2340000000,0.1256637061,8.8296206858,2.4329889773,0.9546951008,1.5495033099,-3.0386182277,-123,-567,-201
-1.5820000000,2.6250000000,-0.0720000000,0.1658062789,8.9919363063,4.1154863762,0.9192649170,1.6706291600,-2.8902652413,-148,-567,-205
-1.7320000000,2.7600000000,0.1500000000,0.3141592654,8.6760317117,5.5693456431,0.8583529261,1.7723818554,-2.7628562059,-170,-566,-206
-1.8800000000,2.8460000000,0.4690000000,0.3455751919,7.8766709143,6.8521626433,0.7789404452,1.8472564803,-2.6651177678,-199,-562,-208
-1.9940000000,2.8930000000,0.8260000000,-0.1500983157,6.9917889835,8.2850779592,0.6857398631,1.8931586396,-2.5987952562,-235,-553,-218
-2.0540000000,2.8820000000,1.1100000000,-0.8447393580,6.0667644799,10.1159283446,0.5785766470,1.9127063273,-2.5586526834,-235,-553,-218
-2.1620000000,2.7130000000,1.3250000000,-1.3700834628,4.7455502362,11.7390845489,0.4574507969,1.9106119322,-2.5411993909,-319,-524,-238
-2.2770000000,2.3240000000,1.4630000000,-1.8989182262,3.3510321638,12.3150432021,0.3300417616,1.8945549030,-2.5429447202,-364,-500,-247
-2.3350000000,1.8130000000,1.5060000000,-2.4731315501,2.0612338466,11.9275801081,0.2055997859,1.8701202935,-2.5534166957,-413,-467,-264
-2.2600000000,1.3520000000,1.4800000000,-3.0770154713,0.8307767239,10.8332586671,0.0914552528,1.8401006304,-2.5726153174,-451,-429,-277
-2.0780000000,1.0430000000,1.4220000000,-3.4121186876,-0.6527531402,9.8576196153,-0.0089011792,1.8065903087,-2.5953045977,-451,-429,-277
-1.9030000000,0.8680000000,1.4170000000,-3.3597588101,-2.2584560521,9.4474672410,-0.0998328332,1.7744762505,-2.6302111828,-525,-357,-287
-1.8010000000,0.7700000000,1.4660000000,-3.1834805556,-3.5831609543,9.1437799512,-0.1857030324,1.7484708446,-2.6773350726,-549,-318,-274
-1.7780000000,0.6880000000,1.5100000000,-3.2253684577,-4.5779986280,8.7947141008,-0.2673844414,1.7294467558,-2.7331856086,-570,-280,-261
-1.8230000000,0.5710000000,1.4490000000,-3.7175513067,-5.3232542186,8.4264496286,-0.3452261260,1.7151350559,-2.7977627909,-591,-239,-243
-1.8530000000,0.3820000000,1.2240000000,-4.6757370661,-5.6112335452,7.8295470244,-0.4188790205,1.7004742902,-2.8693212903,-591,-239,-243
-1.7680000000,0.1280000000,0.8250000000,-5.7840211411,-5.1679199152,6.3983770378,-0.4843288674,1.6793558063,-2.9391344604,-621,-161,-196
-1.5120000000,-0.1740000000,0.3130000000,-6.5380033780,-4.2830379844,4.1346849980,-0.5335471523,1.6470672151,-2.9984756549,-627,-139,-177
-1.1940000000,-0.5190000000,-0.1390000000,-6.8731065944,-4.0369465599,1.9722220548,-0.5625196179,1.6062265106,-3.0490902032,-627,-129,-160
-0.9200000000,-0.8500000000,-0.3270000000,-7.0406582025,-4.5099307872,-0.0593411946,-0.5724679947,1.5638150098,-3.0979594223,-628,-127,-137
-0.4430000000,-1.2270000000,-0.1150000000,-7.1628312502,-5.0771627941,-1.9826940303,-0.5644394801,1.5238469699,3.1258846903,-633,-138,-118
-0.4430000000,-1.2270000000,-0.1150000000,-7.2308990910,-4.7717301750,-3.7926004646,-0.5398303376,1.4842279959,3.0647981665,-630,-152,-100
-0.4020000000,-1.2430000000,-0.1130000000,-7.5729836244,-3.9549160850,-5.3930673887,-0.4996877648,1.4388494353,3.0072023012,-622,-182,-87
-0.4570000000,-1.1790000000,-0.2640000000,-7.9290307918,-3.0682888250,-6.8451813263,-0.4455825580,1.3843951627,2.9583330821,-612,-217,-82
-0.6770000000,-0.8450000000,-0.6300000000,-8.0512038394,-2.3038346126,-8.2013021551,-0.3785619148,1.3231341059,2.9112091923,-598,-256,-86
-0.8170000000,-0.4940000000,-0.7310000000,-7.8941242068,-1.4992378275,-9.1943944995,-0.3005456972,1.2583823907,2.8658306318,-598,-256,-86
-0.9590000000,-0.0460000000,-0.7740000000,-7.5293503931,-0.6265732015,-9.6603974098,-0.2155481626,1.1922344120,2.8221974005,-559,-344,-110
-1.0800000000,0.3840000000,-0.7600000000,-6.8085294120,0.2705260341,-9.6673787268,-0.1277581012,1.1271336309,2.7803094984,-528,-380,-132
-1.1860000000,0.7020000000,-0.6880000000,-5.7857664704,0.9389871376,-9.3933620342,-0.0401425728,1.0669197717,2.7419122549,-503,-413,-152
-1.2930000000,0.9290000000,-0.6140000000,-4.5814892865,1.5323990833,-9.1420346219,0.0455530935,1.0142108283,2.7052603406,-472,-444,-176
-1.4060000000,1.1490000000,-0.6070000000,-3.0752701420,2.3492131732,-9.0460415131,0.1319468915,0.9719738604,2.6720990848,-472,-444,-176
-1.4980000000,1.4350000000,-0.6660000000,-1.4643312424,3.2375857624,-8.8313660151,0.2209586833,0.9435249936,2.6424284875,-400,-495,-210
-1.5350000000,1.7990000000,-0.7510000000,-0.0488692191,4.0509091939,-8.1000730585,0.3110176727,0.9295623596,2.6197392072,-366,-516,-223
-1.5260000000,2.1890000000,-0.8410000000,1.0506882097,4.8485246620,-6.8399453386,0.3979350695,0.9307840901,2.6092672317,-325,-527,-225
-1.5080000000,2.5710000000,-0.9220000000,1.5777776438,5.6653387520,-5.4471725955,0.4785692809,0.9466665863,2.6145032195,-297,-538,-230
-1.4860000000,2.9510000000,-0.9690000000,1.6737707527,6.6043258895,-4.1818088878,0.5530948400,0.9758135848,2.6406831583,-297,-538,-230
-1.4790000000,3.3630000000,-0.9460000000,1.4206980111,7.5956729047,-3.0089476304,0.6220353454,1.0180505527,2.6878070481,-246,-551,-235
-1.5120000000,3.7770000000,-0.8050000000,1.2095131716,8.3531458000,-1.3910274138,0.6820746717,1.0744246875,2.7611108767,-233,-558,-241
-1.5370000000,4.0880000000,-0.5710000000,1.6406094969,8.9203778069,0.9302604913,0.7236135079,1.1524409051,2.8605946440,-229,-556,-239
-1.6260000000,4.1850000000,-0.2380000000,2.4696408916,8.7982047593,3.5011304795,0.7361798785,1.2533209359,2.9827676917,-239,-552,-238
-1.7530000000,4.0450000000,0.1240000000,3.5342917353,8.5643306395,5.4820791805,0.7152359275,1.3676400019,3.1101767271,-260,-552,-232
-1.9200000000,3.7470000000,0.4140000000,4.1399209857,8.5433866885,6.4088490133,0.6688101694,1.4835298642,-3.0508355325,-281,-549,-222
-2.1190000000,3.3750000000,0.6050000000,3.7838738183,8.5713119565,7.0546208366,0.6047565858,1.5891222839,-2.9426251189,-299,-540,-221
-2.2900000000,3.0000000000,0.7620000000,2.5970499270,8.4526295674,7.7946404394,0.5260422366,1.6730726210,-2.8466320100,-333,-525,-228
-2.4180000000,2.6450000000,0.9880000000,1.5673056683,8.0145519252,8.5084801035,0.4345869837,1.7310175521,-2.7663468644,-364,-511,-238
-2.4510000000,2.3280000000,1.4280000000,1.7034413499,6.5990899018,8.7144289552,0.3361504139,1.7699383944,-2.7035150113,-364,-511,-238
-2.3070000000,2.0790000000,2.1370000000,2.7296949501,3.9880773408,8.4561202259,0.2405063709,1.8020524527,-2.6668630970,-420,-473,-237
-2.0370000000,1.8670000000,2.9500000000,3.4976398210,1.1571532941,8.2519167034,0.1534144413,1.8346901097,-2.6616271093,-452,-456,-231
-1.7940000000,1.6030000000,3.5780000000,3.0421088862,-1.2252211349,8.2117741306,0.0741764932,1.8664551021,-2.6825710603,-483,-428,-219
-1.6120000000,1.2540000000,3.8060000000,1.1850785621,-3.2567843842,8.0826197660,0.0031415927,1.8879226519,-2.7279496209,-510,-402,-203
-1.5140000000,0.8530000000,3.5710000000,-1.4049900479,-4.7211156266,7.7300632571,-0.0595157275,1.8901915799,-2.7907814739,-510,-402,-203
-1.4750000000,0.4620000000,2.9530000000,-3.7542032210,-5.4698618758,7.0092422760,-0.1144935989,1.8713420240,-2.8623399733,-556,-344,-169
-1.4360000000,0.1120000000,2.1460000000,-5.2482050607,-5.8346356894,5.8660516160,-0.1612684229,1.8364354389,-2.9356438019,-574,-318,-156
-1.4030000000,-0.1760000000,1.3900000000,-5.8136917384,-6.1034163942,4.4488442633,-0.1975712713,1.7936748723,-3.0072023012,-586,-300,-137
-1.3000000000,-0.4330000000,0.7690000000,-5.9812433466,-6.1034163942,2.8361600345,-0.2220058809,1.7493435093,-3.0770154713,-590,-291,-125
-1.1490000000,-0.6630000000,0.3050000000,-6.1051617235,-5.8102010799,1.3281955608,-0.2336995868,1.7036158829,-3.1398473243,-590,-291,-125
-1.0080000000,-0.8530000000,0.0430000000,-6.3250732092,-5.6583574350,0.0767944871,-0.2349213173,1.6554447955,3.0822514590,-594,-281,-94
-0.8730000000,-0.9940000000,-0.0790000000,-6.4507369154,-5.4873151683,-1.4014993894,-0.2260201381,1.6046557143,3.0246555937,-586,-288,-85
-0.7910000000,-1.0930000000,-0.1440000000,-6.3512531480,-5.3459434989,-3.1782445679,-0.2038544566,1.5524703696,2.9688050576,-579,-308,-72
-0.8000000000,-1.1260000000,-0.1950000000,-6.1627575888,-5.2726396703,-4.9549897464,-0.1663298777,1.5001104921,2.9129545216,-557,-330,-69
-0.8710000000,-1.0220000000,-0.2740000000,-5.8712876037,-5.0579641723,-6.3006385997,-0.1155407965,1.4479251475,2.8553586563,-539,-364,-59
-0.9820000000,-0.7690000000,-0.4180000000,-5.6182148622,-4.5622906647,-7.1558499332,-0.0563741348,1.3957398028,2.7977627909,-518,-391,-61
-1.1010000000,-0.4190000000,-0.6380000000,-5.5134951071,-3.8083084279,-7.7824231346,0.0078539816,1.3416345960,2.7419122549,-492,-425,-68
-1.2140000000,0.0000000000,-0.9140000000,-5.2883476335,-2.6651177678,-8.1995568259,0.0766199542,1.2850859282,2.6878070481,-462,-450,-76
-1.2870000000,0.4670000000,-1.1980000000,-4.7630035287,-1.3561208288,-8.1245076680,0.1481784535,1.2295844580,2.6441738168,-427,-479,-92
-1.3190000000,0.9060000000,-1.4190000000,-4.0439278769,-0.1675516082,-7.5572756611,0.2188642882,1.1782717780,2.6075219025,-427,-479,-92
-1.3460000000,1.2280000000,-1.5720000000,-3.0438542155,1.2496557444,-6.9481557522,0.2869321290,1.1356857443,2.5813419637,-364,-518,-121
-1.3920000000,1.3970000000,-1.6730000000,-2.1624629432,2.3247785637,-6.8172560583,0.3562217003,1.1047934165,2.5656340004,-333,-534,-135
-1.4610000000,1.5350000000,-1.7090000000,-1.4084807064,3.4958944917,-6.6933376814,0.4295255289,1.0843730643,2.5603980127,-303,-545,-151
-1.5310000000,1.7650000000,-1.7050000000,-0.9564404301,4.5430920429,-6.0702551384,0.5052728185,1.0751228192,2.5638886712,-276,-556,-160
-1.5740000000,2.1220000000,-1.6430000000,-0.8901179185,5.4785885220,-4.7979101137,0.5773549166,1.0766936156,2.5848326222,-276,-556,-160
-1.5780000000,2.5910000000,-1.5350000000,-1.0890854532,6.4524822446,-3.1293753488,0.6410594343,1.0901326508,2.6249751950,-231,-564,-186
-1.5040000000,3.5750000000,-1.1600000000,-1.2723450247,7.2902402856,-1.2531464029,0.6921975813,1.1185815176,2.6895523773,-225,-564,-199
-1.5040000000,3.5750000000,-1.1600000000,-1.3805554383,7.9307761211,0.7714355294,0.7271041664,1.1632619465,2.7820548277,-221,-563,-214
-1.5260000000,3.9280000000,-0.8790000000,-1.2374384397,8.3112578980,3.1730085801,0.7400196028,1.2243484703,2.8920105706,-227,-560,-226
-1.6050000000,4.0970000000,-0.5330000000,-1.3264502315,8.4072510069,5.3983033764,0.7257079030,1.2950343050,3.0159289474,-250,-552,-244
-2.0100000000,3.8780000000,0.2870000000,-1.1798425743,8.4508842382,7.2954762733,0.6846926656,1.3646729421,-3.1381019951,-267,-539,-253
-2.2960000000,3.5050000000,0.7680000000,-0.3420845334,7.8627082802,8.6062185416,0.6209881479,1.4289010586,-3.0176742767,-298,-525,-267
-2.5200000000,3.0510000000,1.2730000000,0.6859143960,6.7282442664,9.4719018506,0.5398303376,1.4851006605,-2.9181905093,-331,-507,-274
-2.6410000000,2.5580000000,1.7780000000,1.4608405839,5.5710909724,10.0984750520,0.4462806897,1.5323990833,-2.8413960222,-368,-492,-284
-2.6280000000,2.0660000000,2.3280000000,2.1048670779,3.9444441095,10.2834799528,0.3452261260,1.5714944585,-2.7855454862,-406,-468,-289
-2.4600000000,1.6400000000,2.9020000000,2.4556782576,1.7383479350,10.1421082833,0.2426007660,1.6030849180,-2.7576202182,-431,-448,-282
-2.2170000000,1.3230000000,3.3500000000,2.0071286398,-0.5148721293,10.0600778085,0.1417207353,1.6271704616,-2.7541295596,-469,-423,-273
-2.0010000000,1.0820000000,3.5240000000,0.6161012260,-2.2113321623,10.0443698452,0.0424115008,1.6399113652,-2.7750735107,-504,-392,-262
-1.8980000000,0.8410000000,3.4380000000,-1.1170107213,-3.3807027611,9.9745566751,-0.0560250690,1.6386896347,-2.8082347665,-533,-349,-249
-1.9070000000,0.5470000000,3.1340000000,-2.6895523773,-4.3441245082,9.4701565213,-0.1506219144,1.6250760665,-2.8536133270,-569,-306,-234
-1.9430000000,0.1670000000,2.6500000000,-4.0194932673,-5.0527281845,8.4700828599,-0.2387610417,1.6020377204,-2.9042278753,-589,-269,-218
-1.8980000000,-0.2590000000,2.0490000000,-4.9165925029,-5.3913220594,7.0999993971,-0.3166027263,1.5727161890,-2.9600784114,-603,-237,-204
-1.7620000000,-0.6830000000,1.4660000000,-5.3284902063,-5.5763269601,5.4279739737,-0.3808308428,1.5411257295,-3.0176742767,-614,-206,-178
-1.5500000000,-1.0640000000,0.9990000000,-5.4192473274,-5.8381263479,3.6198128686,-0.4295255289,1.5109315335,-3.0770154713,-621,-189,-153
-1.2650000000,-1.3550000000,0.6620000000,-5.4314646322,-6.2308254296,1.7348572765,-0.4616395872,1.4845770617,3.1398473243,-626,-176,-129
-0.9970000000,-1.5510000000,0.4110000000,-5.3441981696,-6.5641833168,-0.0331612558,-0.4771730175,1.4624113802,3.0700341543,-628,-183,-103
-0.8180000000,-1.6820000000,0.1670000000,-5.3302355356,-6.7247536079,-1.9111355309,-0.4763003529,1.4440854231,2.9932396672,-621,-194,-79
-0.7310000000,-1.7720000000,-0.1710000000,-5.3930673887,-6.3634704528,-3.8484510006,-0.4576253299,1.4255849330,2.9164451801,-613,-208,-50
-0.7230000000,-1.7880000000,-0.6120000000,-5.5641096554,-5.6688294105,-5.6531214472,-0.4209734156,1.4028956528,2.8431413515,-598,-240,-34
-0.7940000000,-1.6600000000,-1.1090000000,-5.7072266540,-4.7001716756,-7.3042029196,-0.3675663405,1.3728759896,2.7733281814,-578,-280,-23
-0.9510000000,-1.3270000000,-1.6110000000,-5.5518923506,-3.3876840781,-8.5468773470,-0.2993239667,1.3362240753,2.7139869869,-562,-314,-21
-1.1350000000,-0.7840000000,-2.0600000000,-4.9654617219,-1.7348572765,-9.3113315594,-0.2197369528,1.2960815025,2.6633724385,-534,-355,-28
-1.2730000000,-0.1100000000,-2.3870000000,-3.9810960238,-0.0820304748,-9.5766216057,-0.1319468915,1.2573351931,2.6267205243,-503,-394,-42
-1.3660000000,0.6150000000,-2.5730000000,-2.8099800957,1.5009831567,-9.3235488642,-0.0401425728,1.2250466020,2.6005405855,-476,-430,-57
-1.4340000000,1.3750000000,-2.6650000000,-1.6702800942,3.2183871407,-8.5957465661,0.0521853446,1.2021827888,2.5900686100,-444,-465,-73
-1.4700000000,2.1400000000,-2.6730000000,-0.6841690668,4.8834312471,-7.3146748951,0.1415462023,1.1910126816,2.5987952562,-420,-484,-85
-1.4750000000,2.8120000000,-2.5930000000,0.1850049007,6.3320545262,-5.5344390581,0.2228785455,1.1932816096,2.6267205243,-401,-496,-103
-1.4990000000,3.2920000000,-2.4060000000,0.7225663103,7.4281212965,-3.7402405870,0.2912954522,1.2105603692,2.6738444141,-387,-505,-117
-1.5800000000,3.5460000000,-2.1090000000,0.9407324668,8.3077672395,-2.4574235868,0.3471459882,1.2397073677,2.7401669256,-381,-510,-134
-1.7090000000,3.6270000000,-1.7240000000,1.1100294043,8.9186324777,-1.4032447186,0.3923500158,1.2793263417,2.8221974005,-374,-517,-157
-1.8660000000,3.6350000000,-1.2650000000,1.4067353771,9.2694436573,-0.2984513021,0.4249876729,1.3285446266,2.9164451801,-372,-513,-170
-1.9990000000,3.6320000000,-0.7560000000,1.9477874452,9.3095862301,0.8813912723,0.4424409654,1.3873622224,3.0159289474,-371,-513,-183
-2.0900000000,3.6530000000,-0.2250000000,2.5534166957,9.1472706097,2.0437805541,0.4424409654,1.4538592669,3.1189033733,-375,-509,-195
-2.1380000000,3.7060000000,0.3090000000,3.0473448740,8.8400926614,3.1189033733,0.4244640741,1.5245451016,-3.0613075080,-385,-507,-205
-2.1520000000,3.7610000000,0.8580000000,2.9967303257,8.0285145592,4.3196898987,0.3893829561,1.5922638766,-2.9670597284,-395,-494,-215
-2.1940000000,3.7850000000,1.4310000000,2.3404865269,6.9621183862,5.8346356894,0.3358013481,1.6474162810,-2.8902652413,-411,-485,-218
-2.1870000000,3.7210000000,2.0200000000,1.3892820846,5.6443948009,7.1052353849,0.2656391122,1.6845917940,-2.8291787175,-428,-465,-232
-2.1180000000,3.5320000000,2.6630000000,0.5393067389,3.6599554414,8.1070543755,0.1848303678,1.7034413499,-2.7907814739,-454,-444,-240
-2.0120000000,3.1980000000,3.3070000000,-0.2583087293,1.4084807064,8.8994338559,0.0972148393,1.7076301402,-2.7750735107,-485,-414,-244
-1.9160000000,2.7040000000,3.8080000000,-1.2287117934,-0.7592182246,9.1228360002,0.0069813170,1.7006488231,-2.7838001569,-518,-378,-245
-1.8310000000,2.0800000000,4.0510000000,-2.3422318562,-2.7244589624,8.7301369185,-0.0797615468,1.6844172611,-2.8117254250,-545,-352,-239
-1.7600000000,1.4040000000,3.9830000000,-3.3632494686,-4.2463860701,7.9377574381,-0.1596976266,1.6615534479,-2.8536133270,-564,-315,-226
-1.6850000000,0.7720000000,3.6210000000,-4.0875611082,-5.2866023043,7.0284408978,-0.2309070600,1.6351989762,-2.9077185338,-586,-284,-212
-1.6000000000,0.2530000000,3.0750000000,-4.5116761164,-5.9760073588,6.2378067466,-0.2944370448,1.6083209057,-2.9705503869,-600,-253,-187
-1.5380000000,-0.1550000000,2.4860000000,-4.7699848457,-6.4489915861,5.5588736676,-0.3522074431,1.5831881645,-3.0368728985,-616,-220,-163
-1.4740000000,-0.5120000000,1.9500000000,-4.6547931151,-6.9638637155,4.4820055191,-0.4031710572,1.5622442135,-3.1084313978,-618,-201,-136
-1.4000000000,-0.8790000000,1.4970000000,-4.3057272647,-7.3897240529,3.0787608005,-0.4429645642,1.5495033099,3.0944687638,-626,-184,-105
-1.3340000000,-1.2800000000,1.0740000000,-4.1381756565,-7.5974182339,1.3264502315,-0.4679227725,1.5440927892,3.0124382889,-623,-184,-74
-1.2160000000,-1.7000000000,0.6080000000,-4.1329396687,-7.3652894434,-0.7784168464,-0.4740314248,1.5411257295,2.9286624848,-616,-188,-43
-1.0800000000,-2.1070000000,0.0690000000,-4.3249258864,-6.8539079726,-3.1101767271,-0.4583234616,1.5357152088,2.8466320100,-601,-207,-11
-0.9750000000,-2.4520000000,-0.5240000000,-4.8083820892,-6.1121430405,-5.5553830091,-0.4188790205,1.5221016407,2.7733281814,-592,-230,1
-0.9650000000,-2.6340000000,-1.1170000000,-5.4157566689,-5.0928707573,-7.7335539156,-0.3569198320,1.4962707677,2.7070056698,-567,-267,14
-1.3040000000,-1.9810000000,-2.1610000000,-5.7124626418,-3.7943457938,-9.3026049131,-0.2766346864,1.4578735242,2.6511551338,-542,-316,15
-1.3040000000,-1.9810000000,-2.1610000000,-5.4698618758,-2.3352505392,-10.1211643323,-0.1844813019,1.4121458978,2.6057765732,-515,-360,11
-1.5260000000,-1.1350000000,-2.5170000000,-4.7979101137,-0.9372418083,-10.1892321731,-0.0872664626,1.3651965409,2.5708699882,-478,-411,3
-1.8090000000,0.8280000000,-2.8400000000,-4.0125119503,0.5148721293,-9.6150188492,0.0090757121,1.3219123755,2.5464353787,-451,-443,-11
-1.8490000000,1.6570000000,-2.8660000000,-3.5133477843,1.8430676901,-8.5311693837,0.1000073661,1.2836896648,2.5324727446,-420,-470,-29
-1.8550000000,2.3280000000,-2.8570000000,-3.3213615665,3.2934362985,-7.4124133332,0.1839577032,1.2498302774,2.5324727446,-393,-495,-51
-1.8310000000,2.8910000000,-2.8010000000,-3.3039082740,4.7856928090,-6.2220987834,0.2619739207,1.2203342130,2.5464353787,-370,-511,-73
-1.7850000000,3.3660000000,-2.6440000000,-3.3091442618,6.0685098092,-4.6757370661,0.3330088213,1.1967722681,2.5795966344,-347,-526,-106
-1.7480000000,3.7340000000,-2.3520000000,-3.2079151652,7.0895274216,-2.9077185338,0.3933972134,1.1817624365,2.6284658535,-341,-531,-124
-1.7400000000,3.9820000000,-1.9140000000,-2.9251718263,7.8435096585,-1.2234758056,0.4422664325,1.1777481792,2.6965336943,-332,-535,-159
-1.7710000000,4.1260000000,-1.3340000000,-2.3963370630,8.2170101184,0.4276056667,0.4766494187,1.1866493584,2.7768188399,-334,-531,-185
-1.8240000000,4.1970000000,-0.6560000000,-1.7732545200,8.2972952640,2.0926497731,0.4958480405,1.2084659741,2.8675759610,-335,-526,-204
-1.8830000000,4.1720000000,0.1090000000,-0.9424777961,8.1751222163,3.6896260387,0.4974188368,1.2416272299,2.9670597284,-347,-518,-238
-1.9250000000,4.0130000000,0.9740000000,0.3665191429,7.5380770394,4.7036623341,0.4815363406,1.2850859282,3.0682888250,-356,-509,-255
-2.0390000000,3.7280000000,1.8960000000,1.4608405839,6.2727133317,5.6566121057,0.4504694799,1.3348278119,-3.1223940318,-378,-502,-265
-2.1120000000,3.3640000000,2.7750000000,1.9320794820,4.7315876022,6.8626346188,0.4014257280,1.3829988993,-3.0490902032,-398,-485,-265
-2.0770000000,2.9280000000,3.4800000000,1.6650441064,3.3353242006,7.5066611128,0.3373721444,1.4219197416,-2.9914943379,-421,-469,-267
-2.0000000000,2.3890000000,3.9590000000,0.9948376736,1.8064157758,7.6270888312,0.2658136451,1.4474015487,-2.9530970944,-448,-444,-270
-1.8950000000,1.7750000000,4.2150000000,0.1989675347,0.1588249619,7.3146748951,0.1926843494,1.4583971230,-2.9338984726,-468,-425,-271
-1.7770000000,1.1520000000,4.2710000000,-0.5375614096,-1.5097098030,6.6950830107,0.1219985147,1.4573499254,-2.9321531434,-491,-403,-264
-1.6520000000,0.5870000000,4.1500000000,-1.0768681485,-3.1171580441,5.9096848473,0.0563741348,1.4480996804,-2.9461157774,-514,-383,-258
-1.5430000000,0.1330000000,3.8640000000,-1.4887658520,-4.4244096538,5.1975905124,-0.0034906585,1.4346606451,-2.9775317039,-532,-362,-243
-1.4750000000,-0.2000000000,3.4450000000,-1.8622663119,-5.3058009261,4.6460664688,-0.0591666616,1.4194762806,-3.0176742767,-555,-336,-225
-1.4380000000,-0.4470000000,2.9470000000,-2.2427480888,-5.9236474813,4.1765729000,-0.1117010721,1.4032447186,-3.0665434958,-566,-321,-210
-1.4290000000,-0.6790000000,2.4370000000,-2.4277529895,-6.4891341589,3.5796702958,-0.1610938900,1.3873622224,-3.1206487026,-580,-306,-182
-1.4490000000,-0.9720000000,1.9480000000,-2.4696408916,-6.9132491671,2.6249751950,-0.2050761871,1.3739231872,3.0997047515,-587,-294,-156
-1.4580000000,-1.3300000000,1.4830000000,-2.5691246589,-7.1558499332,1.0943214410,-0.2385865087,1.3636257446,3.0333822400,-586,-289,-126
-1.4430000000,-1.6940000000,1.0340000000,-2.6284658535,-7.2466070543,-0.9965830029,-0.2555162025,1.3554226971,2.9618237406,-587,-290,-94
-1.4400000000,-1.9760000000,0.5820000000,-2.8797932658,-7.1471232869,-2.9897490087,-0.2523746098,1.3477432484,2.8850292535,-573,-307,-75
-1.4400000000,-2.0490000000,0.1290000000,-3.4208453339,-6.9376837767,-4.5902159327,-0.2319542576,1.3358750095,2.8047441080,-561,-324,-55
-1.4270000000,-1.8680000000,-0.3120000000,-3.8763762687,-6.6025805603,-5.7281706050,-0.1984439360,1.3166763877,2.7244589624,-541,-352,-32
-1.4270000000,-1.4930000000,-0.7590000000,-4.0317105721,-6.0894537602,-6.5833819385,-0.1563815010,1.2910200477,2.6459191460,-511,-379,-24
-1.4550000000,-1.0230000000,-1.2320000000,-3.9095375245,-5.3529248159,-7.3670347727,-0.1068141502,1.2611749175,2.5708699882,-485,-412,-15
-1.5030000000,-0.5220000000,-1.7210000000,-3.6756634047,-4.3545964837,-7.9901173156,-0.0499164166,1.2288863263,2.4993114889,-459,-436,-13
-1.5710000000,0.0050000000,-2.2230000000,-3.6407568197,-2.8780479365,-8.3618724463,0.0132645023,1.1938052084,2.4347343065,-423,-462,-17
-1.6310000000,0.6110000000,-2.7270000000,-3.7908551353,-0.7120943348,-8.2623886789,0.0829031395,1.1545353002,2.3841197582,-387,-487,-35
-1.6210000000,1.2990000000,-3.1430000000,-3.8763762687,1.6301375214,-7.4054320162,0.1562069681,1.1126473981,2.3544491609,-357,-511,-56
-1.5500000000,1.9980000000,-3.3650000000,-3.4924038332,3.6878807095,-6.1173790282,0.2288126649,1.0735520229,2.3457225147,-325,-531,-79
-1.5070000000,2.6150000000,-3.3550000000,-2.7419122549,5.3372168526,-4.8188540648,0.2988003679,1.0452776890,2.3579398194,-309,-538,-95
-1.5400000000,3.1160000000,-3.1510000000,-2.0455258833,6.6654124134,-3.5517450278,0.3656464783,1.0314895879,2.3893557460,-295,-549,-113
-1.6390000000,3.5150000000,-2.8070000000,-1.5795229731,7.6986473305,-2.2567107228,0.4277801997,1.0328858513,2.4399702943,-285,-550,-136
-1.7690000000,3.8510000000,-2.3360000000,-1.3473941825,8.3775804096,-0.7417649321,0.4822344723,1.0482447487,2.5115287936,-282,-552,-154
-1.8920000000,4.1490000000,-1.7540000000,-1.1676252696,8.7371182355,1.1746065866,0.5230751768,1.0770426814,2.5970499270,-286,-553,-176
-1.9870000000,4.3680000000,-1.0980000000,-0.6859143960,8.9133964899,3.2602750427,0.5443681937,1.1194541822,2.6982790236,-293,-544,-188
-2.0530000000,4.4070000000,-0.4030000000,0.2146754980,8.8313660151,4.9323004661,0.5440191278,1.1756537841,2.8134707542,-314,-537,-201
-2.1730000000,4.1890000000,0.3210000000,1.4172073526,8.4439029211,6.1645029180,0.5230751768,1.2424998945,2.9321531434,-335,-526,-214
-2.3340000000,3.7450000000,1.0850000000,2.5778513052,7.7544978666,6.7963121073,0.4845034004,1.3156291902,3.0438542155,-362,-513,-221
-2.4650000000,3.1730000000,1.8910000000,3.2532937257,6.6514497794,6.9621183862,0.4331907203,1.3875367553,3.1381019951,-387,-500,-227
-2.5300000000,2.5910000000,2.7260000000,3.2655110305,5.1399946471,6.9568823984,0.3735004599,1.4505431413,-3.0665434958,-405,-488,-226
-2.4960000000,2.0810000000,3.5610000000,2.6075219025,3.1730085801,6.9254664719,0.3085742118,1.4983651628,-3.0141836182,-433,-474,-227
-2.3630000000,1.6410000000,4.3110000000,1.2287117934,0.8028514559,6.7352255834,0.2415535685,1.5261158979,-2.9880036794,-453,-451,-226
-2.1360000000,1.2410000000,4.8550000000,-0.5654866776,-1.6563174601,6.3111105752,0.1759291886,1.5304792211,-2.9880036794,-477,-433,-217
-1.6730000000,0.5700000000,4.9840000000,-2.3265238929,-3.9269908170,5.8765235915,0.1137954672,1.5133749944,-3.0124382889,-503,-406,-213
-1.6730000000,0.5700000000,4.9840000000,-3.7559485503,-5.8049650921,5.5518923506,0.0532325422,1.4796901398,-3.0560715202,-525,-389,-200
-1.5590000000,0.3260000000,4.5430000000,-4.7420595777,-7.0214595808,5.3162729016,-0.0078539816,1.4360569085,-3.1136673856,-545,-368,-186
-1.5500000000,0.1280000000,3.8280000000,-5.1487212934,-7.5764742829,4.9689523804,-0.0703367689,1.3889330187,3.1031954100,-559,-349,-167
-1.6820000000,-0.3050000000,2.0830000000,-4.9514990879,-7.7719511591,4.3423791790,-0.1319468915,1.3446016557,3.0368728985,-572,-334,-145
-1.7270000000,-0.6240000000,1.2850000000,-4.3179445694,-7.6742127210,3.4208453339,-0.1890191580,1.3084733402,2.9705503869,-577,-309,-117
-1.7030000000,-1.0270000000,0.5790000000,-3.6372661612,-7.3478361509,2.1519909677,-0.2371902453,1.2824679344,2.9042278753,-580,-304,-94
-1.5890000000,-1.4690000000,-0.0210000000,-3.0927234345,-6.8573986311,0.3385938749,-0.2712241658,1.2657127735,2.8379053637,-579,-305,-68
-1.4140000000,-1.8980000000,-0.5480000000,-2.6040312440,-6.2186081249,-1.8238690683,-0.2855358656,1.2554153310,2.7715828522,-568,-314,-47
-1.2640000000,-2.1820000000,-1.0390000000,-2.2008601868,-5.2569317070,-4.1102503884,-0.2766346864,1.2501793432,2.7052603406,-555,-332,-38
-1.2030000000,-2.1710000000,-1.5010000000,-2.0647245051,-4.1957715218,-5.9952059806,-0.2438224965,1.2452924213,2.6406831583,-533,-357,-20
-1.1980000000,-1.8230000000,-1.9200000000,-1.8675022996,-3.1119220563,-7.3024575903,-0.1939060799,1.2381365714,2.5830872930,-517,-377,-15
-1.2570000000,-1.2130000000,-2.2980000000,-1.5428710588,-1.9565140915,-8.1629049116,-0.1296779634,1.2292353922,2.5324727446,-487,-406,-10
-1.3650000000,-0.4520000000,-2.6300000000,-1.4713125594,-0.6178465552,-8.6393797974,-0.0555014702,1.2184143508,2.4905848426,-456,-438,-12
-1.4830000000,0.3710000000,-2.8890000000,-1.7802358370,0.9686577349,-8.6690503947,0.0260054059,1.2032299863,2.4609142453,-424,-464,-20
-1.5590000000,1.2000000000,-3.0260000000,-2.3439771854,2.6860617188,-8.1524329361,0.1110029404,1.1819369695,2.4452062820,-388,-494,-42
-1.5620000000,1.9780000000,-2.9940000000,-2.7471482426,4.2202061313,-7.0546208366,0.1953023433,1.1568042282,2.4469516113,-366,-505,-59
-1.5300000000,2.6350000000,-2.7930000000,-2.8640853025,5.3372168526,-5.6164695329,0.2731440279,1.1327186845,2.4644049038,-347,-521,-86
-1.4930000000,3.1380000000,-2.4890000000,-2.7139869869,6.2482787221,-4.2655846919,0.3431317309,1.1143927274,2.4958208304,-331,-532,-111
-1.4720000000,3.4890000000,-2.1280000000,-2.3335052099,6.8696159358,-3.0246555937,0.4052654523,1.1054915482,2.5411993909,-315,-540,-136
-1.4610000000,3.7110000000,-1.7140000000,-1.9809487010,7.2361350788,-1.7400932642,0.4588470603,1.1079350092,2.5987952562,-302,-543,-155
-1.4450000000,3.8220000000,-1.2580000000,-1.7016960207,7.4525559060,-0.3176499239,0.5010840282,1.1211995115,2.6703537556,-297,-547,-171
-1.4310000000,3.8430000000,-0.7860000000,-1.3613568166,7.5468036856,1.0960667703,0.5298819609,1.1449359893,2.7506389011,-300,-545,-191
-1.4350000000,3.8140000000,-0.3170000000,-0.8936085770,7.5415676979,2.4050637092,0.5443681937,1.1786208439,2.8379053637,-307,-540,-206
-1.4680000000,3.7520000000,0.1780000000,-0.1692969374,7.4682638693,3.7018433435,0.5438445949,1.2215559435,2.9321531434,-318,-533,-222
-1.5120000000,3.6170000000,0.7110000000,0.8325220532,7.4263759672,4.8834312471,0.5272639670,1.2742648869,3.0316369107,-334,-521,-240
-1.6440000000,3.3550000000,1.3220000000,1.9076448724,7.0633474828,6.0423298704,0.4944517771,1.3348278119,3.1276300196,-353,-512,-244
-1.8110000000,2.9570000000,2.0470000000,2.8239427297,6.3355451847,7.0389128733,0.4441862946,1.3988813955,-3.0647981665,-370,-498,-247
-1.9250000000,2.4450000000,2.8480000000,3.1346113366,5.1749012322,7.3094389074,0.3811799086,1.4589207217,-2.9897490087,-396,-483,-248
-1.9690000000,1.8620000000,3.6670000000,2.8204520712,3.2969269570,6.9917889835,0.3134611337,1.5076154079,-2.9373891311,-420,-476,-247
-1.9160000000,1.2830000000,4.4260000000,1.8640116411,0.8028514559,6.3826690745,0.2473131550,1.5393804003,-2.9112091923,-446,-451,-247
-1.7920000000,0.7550000000,5.0090000000,0.3019419606,-1.9565140915,5.7002453370,0.1865756970,1.5508995733,-2.9146998508,-467,-437,-240
-1.6430000000,0.3140000000,5.2860000000,-1.5027284860,-4.6425758103,4.9375364539,0.1322959573,1.5409511966,-2.9443704481,-490,-423,-226
-1.5490000000,-0.0100000000,5.1580000000,-3.1346113366,-6.8067840828,4.1975168510,0.0841248699,1.5125023298,-3.0002209842,-510,-400,-210
-1.5520000000,-0.2180000000,4.6240000000,-4.3511058252,-8.3007859225,3.6617007707,0.0389208423,1.4709634936,-3.0717794835,-523,-387,-189
-1.6640000000,-0.3460000000,3.7820000000,-5.0649454893,-8.9936816355,3.1346113366,-0.0055850536,1.4226178733,3.1276300196,-541,-369,-167
-1.8480000000,-0.4730000000,2.7690000000,-5.1836278784,-9.1786865362,2.3945917337,-0.0490437520,1.3733995884,3.0421088862,-548,-361,-146
-2.0070000000,-0.6690000000,1.7370000000,-4.7577675409,-9.0600041471,1.2374384397,-0.0876155285,1.3290682254,2.9583330821,-548,-356,-126
-2.0880000000,-0.9640000000,0.7910000000,-4.0282199136,-8.6114545293,-0.4153883620,-0.1157153294,1.2932889757,2.8728119488,-548,-359,-96
-2.0940000000,-1.3190000000,-0.0380000000,-3.3440508468,-7.7632245129,-2.4190263433,-0.1268854366,1.2665854382,2.7890361447,-536,-369,-73
-2.0510000000,-1.6080000000,-0.7600000000,-2.7890361447,-6.6462137916,-4.3860124103,-0.1178097245,1.2456414871,2.7087509991,-516,-387,-54
-1.9990000000,-1.6950000000,-1.3900000000,-2.2026055160,-5.3773594254,-5.8712876037,-0.0895353906,1.2281881946,2.6354471705,-499,-405,-43
-1.9360000000,-1.5190000000,-1.9410000000,-1.5550883635,-4.0282199136,-6.8975412039,-0.0462512252,1.2137019618,2.5691246589,-471,-431,-37
-1.8760000000,-1.1230000000,-2.4200000000,-1.0210176124,-2.6354471705,-7.5886915877,0.0090757121,1.2020082558,2.5115287936,-443,-453,-30
-1.8550000000,-0.5850000000,-2.8380000000,-0.9477137838,-1.0053096491,-8.0354958762,0.0745255591,1.1906636157,2.4644049038,-407,-476,-34
-1.8700000000,0.0570000000,-3.2010000000,-1.3788101091,0.9267698328,-8.0459678517,0.1488765852,1.1761773829,2.4329889773,-372,-500,-39
-1.8660000000,0.7660000000,-3.4280000000,-2.0525072003,2.7506389011,-7.4839718326,0.2277654674,1.1568042282,2.4172810140,-351,-513,-51
-1.8050000000,1.4860000000,-3.4540000000,-2.4748768793,4.3633231300,-6.5886179263,0.3068288825,1.1348130796,2.4207716725,-322,-530,-72
-1.7040000000,2.1590000000,-3.2710000000,-2.5726153174,5.4733525343,-5.3354715233,0.3824016391,1.1161380567,2.4399702943,-299,-539,-88
-1.5880000000,2.7220000000,-2.9090000000,-2.5778513052,6.1749748936,-3.9426987803,0.4502949470,1.1044443507,2.4731315501,-281,-548,-110
-1.4880000000,3.1560000000,-2.4580000000,-2.6546457923,6.7596601930,-2.6249751950,0.5091125428,1.1004300934,2.5220007691,-268,-554,-135
-1.4060000000,3.4780000000,-1.9860000000,-2.6895523773,7.1541046039,-1.2147491594,0.5585053606,1.1051424824,2.5830872930,-264,-555,-154
-1.2920000000,3.7720000000,-0.9910000000,-2.5411993909,7.3059482488,0.2949606436,0.5951572749,1.1194541822,2.6581364508,-263,-554,-173
-1.2920000000,3.7720000000,-0.9910000000,-2.1345376752,7.4385932720,1.6702800942,0.6180210881,1.1445869235,2.7436575841,-270,-551,-195
-1.2890000000,3.7360000000,-0.4920000000,-1.4957471690,7.4979344666,2.9129545216,0.6272713332,1.1817624365,2.8396506930,-276,-553,-212
-1.3570000000,3.5880000000,0.0050000000,-0.8674286382,7.6515234407,4.0648718279,0.6220353454,1.2294099251,2.9408797896,-285,-541,-234
-1.6660000000,3.0620000000,1.0720000000,-0.0767944871,7.7841684639,5.0021136362,0.6030112566,1.2856095270,3.0473448740,-295,-534,-243
-1.8650000000,2.7260000000,1.7550000000,0.8604473212,7.4368479427,5.6182148622,0.5712462642,1.3473941825,-3.1276300196,-316,-524,-252
-2.0610000000,2.3580000000,2.5550000000,1.5550883635,6.3861597330,6.1662482473,0.5270894341,1.4084807064,-3.0351275692,-332,-516,-261
-2.1640000000,1.9760000000,3.3880000000,1.7453292520,4.6687557491,6.4978608052,0.4721115627,1.4608405839,-2.9600784114,-353,-504,-261
-2.1630000000,1.5890000000,4.1420000000,1.3421581948,2.4050637092,6.4402649399,0.4108505059,1.4971434324,-2.9129545216,-381,-487,-265
-2.0840000000,1.2200000000,4.7050000000,0.4555309348,-0.1745329252,6.1889375276,0.3485422516,1.5137240603,-2.8955012291,-398,-480,-263
-1.9820000000,0.9010000000,4.9810000000,-0.7138396641,-2.8483773393,5.9341194568,0.2872811949,1.5098843359,-2.9059732046,-427,-464,-261
-1.9190000000,0.6420000000,4.9080000000,-1.9390607990,-5.3267448771,5.6531214472,0.2265437369,1.4878931873,-2.9443704481,-454,-442,-245
-1.9260000000,0.4400000000,4.4760000000,-3.0072023012,-7.2762776516,5.5396750458,0.1649336143,1.4524630035,-3.0019663134,-477,-426,-233
-2.0020000000,0.2730000000,3.7450000000,-3.8868482442,-8.4543748967,5.4942964853,0.0991347015,1.4088297722,-3.0717794835,-510,-398,-211
-2.1360000000,0.0890000000,2.8250000000,-4.2568580456,-8.7842421253,5.0963614158,0.0308923278,1.3629276129,3.1346113366,-531,-383,-197
-2.2730000000,-0.1670000000,1.8780000000,-4.0177479381,-8.8505646369,4.5430920429,-0.0361283155,1.3213887767,3.0595621787,-545,-363,-172
-2.3240000000,-0.4990000000,1.0050000000,-3.4400439557,-8.6603237484,3.7664205258,-0.0998328332,1.2887511197,2.9862583502,-555,-346,-140
-2.2520000000,-0.8930000000,0.2500000000,-2.6563911215,-8.1908301796,2.5953045977,-0.1556833693,1.2669345040,2.9129545216,-564,-335,-113
-2.0650000000,-1.3340000000,-0.3910000000,-1.8291050561,-7.4961891373,0.8534660042,-0.1975712713,1.2568115944,2.8431413515,-564,-330,-79
-1.8220000000,-1.7730000000,-0.9600000000,-1.3020156220,-6.5694193045,-1.4137166941,-0.2181661565,1.2555898639,2.7733281814,-555,-337,-57
-1.6010000000,-2.0880000000,-1.4810000000,-1.2095131716,-5.4349552907,-3.6983526850,-0.2134537675,1.2578587919,2.7070056698,-545,-350,-38
-1.4320000000,-2.1400000000,-1.9690000000,-1.3491395118,-4.1556289490,-5.5431657043,-0.1850049007,1.2575097261,2.6459191460,-522,-370,-24
-1.3280000000,-1.8660000000,-2.4220000000,-1.4573499254,-2.7035150113,-6.8451813263,-0.1373574121,1.2520992054,2.5918139392,-499,-398,-17
-1.2900000000,-1.3120000000,-2.8060000000,-1.4765485472,-1.1187560505,-7.6916660135,-0.0748746249,1.2419762957,2.5499260372,-472,-423,-21
-1.3210000000,-0.5890000000,-3.0680000000,-1.5812683023,0.5288347634,-8.1262529973,-0.0015707963,1.2281881946,2.5202554399,-451,-448,-28
-1.4110000000,0.2100000000,-3.1740000000,-1.7976891296,2.1589722847,-8.1855941919,0.0794124810,1.2109094350,2.5045474766,-421,-471,-40
-1.4940000000,1.0250000000,-3.1170000000,-2.0280725908,3.6582101122,-7.8295470244,0.1647590814,1.1917108133,2.5010568181,-395,-494,-56
-1.5180000000,1.8080000000,-2.9010000000,-2.2130774915,4.7752208335,-6.9760810202,0.2499311489,1.1728612573,2.5115287936,-367,-509,-73
-1.4720000000,2.5160000000,-2.5550000000,-2.3684117950,5.4873151683,-5.6862827030,0.3289945640,1.1566296953,2.5342180739,-338,-529,-102
-1.3640000000,3.1170000000,-2.1380000000,-2.5010568181,5.9568087371,-4.1765729000,0.3979350695,1.1444123905,2.5691246589,-326,-536,-117
-1.2250000000,3.5930000000,-1.6970000000,-2.4905848426,6.2011548323,-2.6057765732,0.4548328031,1.1381292052,2.6145032195,-311,-540,-140
-1.1090000000,3.9180000000,-1.2460000000,-2.3544491609,6.1400683085,-0.9407324668,0.4977679027,1.1386528040,2.6686084263,-304,-545,-158
-1.0540000000,4.0890000000,-0.8090000000,-2.1327923459,6.0056779561,0.7731808586,0.5242969073,1.1468558515,2.7314402794,-299,-542,-184
-1.0500000000,4.1100000000,-0.4070000000,-1.7802358370,6.0196405901,2.2951079664,0.5351179487,1.1625638148,2.8012534495,-306,-538,-205
-1.1020000000,3.9730000000,-0.0250000000,-1.1257373675,6.0615284922,3.5447637108,0.5318018231,1.1869984243,2.8797932658,-311,-531,-223
-1.2250000000,3.6880000000,0.3820000000,-0.2775073511,6.0074232854,4.5657813232,0.5160938598,1.2205087459,2.9600784114,-331,-521,-235
-1.3880000000,3.2970000000,0.8400000000,0.5131268001,5.8869955670,5.3023102676,0.4888667235,1.2611749175,3.0438542155,-346,-508,-246
-1.5590000000,2.8560000000,1.3560000000,1.1676252696,5.6147242037,5.7456238976,0.4523893421,1.3055062805,3.1223940318,-365,-498,-255
-1.7110000000,2.4070000000,1.9480000000,1.5777776438,4.9410271124,5.9864793343,0.4084070450,1.3496631106,-3.0857421175,-390,-490,-263
-1.8070000000,1.9840000000,2.6150000000,1.5952309363,3.7856191476,6.0580378337,0.3583160954,1.3884094200,-3.0264009230,-404,-474,-262
-1.8290000000,1.6060000000,3.3080000000,1.2723450247,2.1118483949,6.0144046024,0.3038618228,1.4170328197,-2.9827676917,-423,-463,-264
-1.7840000000,1.2770000000,3.9400000000,0.7330382858,0.1308996939,5.9061941887,0.2467895562,1.4334389147,-2.9618237406,-443,-447,-267
-1.7180000000,0.9840000000,4.4110000000,0.0261799388,-2.0158552861,5.8206730554,0.1876228946,1.4378022378,-2.9618237406,-465,-430,-256
-1.6700000000,0.7060000000,4.6430000000,-0.7278022981,-4.0683624864,5.7665678486,0.1263618378,1.4313445196,-2.9827676917,-495,-403,-247
-1.6530000000,0.4380000000,4.5750000000,-1.3980087308,-5.7875117996,5.6356681547,0.0628318531,1.4172073526,-3.0229102645,-511,-388,-232
-1.6770000000,0.1810000000,4.2020000000,-1.8395770316,-7.0528755073,5.3948127179,-0.0019198622,1.3994049942,-3.0770154713,-532,-367,-207
-1.7490000000,-0.0800000000,3.5800000000,-1.9058995432,-7.8906335483,5.0317842335,-0.0668461104,1.3826498334,3.1398473243,-550,-348,-180
-1.8540000000,-0.3870000000,2.8110000000,-1.8116517636,-8.3758350803,4.4732788729,-0.1295034305,1.3711306604,3.0682888250,-567,-326,-145
-1.9230000000,-0.7550000000,1.9980000000,-1.7400932642,-8.4456482504,3.4435346142,-0.1862266312,1.3651965409,2.9932396672,-579,-312,-110
-1.8980000000,-1.1830000000,1.1930000000,-1.8360863731,-7.9813906694,1.7610372153,-0.2300343954,1.3634512117,2.9164451801,-579,-305,-83
-1.7970000000,-1.6480000000,0.4320000000,-1.9268434942,-7.4176493210,-0.3839724354,-0.2537708732,1.3631021458,2.8413960222,-575,-309,-57
-1.6800000000,-2.0780000000,-0.2530000000,-2.0699604929,-6.7264989372,-2.4696408916,-0.2553416696,1.3624040141,2.7663468644,-559,-316,-29
-1.5620000000,-2.3390000000,-0.8660000000,-2.3038346126,-5.8189277261,-4.3022366062,-0.2361430478,1.3580406910,2.6947883651,-544,-335,-11
-1.4390000000,-2.3170000000,-1.4510000000,-2.4870941841,-4.7874381382,-5.7718038363,-0.1989675347,1.3480923142,2.6302111828,-521,-360,2
-1.3480000000,-2.0170000000,-2.0090000000,-2.5603980127,-3.5674529911,-6.8643799481,-0.1474803218,1.3327334168,2.5743606467,-503,-377,9
-1.3310000000,-1.4760000000,-2.5570000000,-2.4836035256,-1.9006635554,-7.6078902094,-0.0844739358,1.3128366634,2.5289820861,-472,-407,11
-1.3810000000,-0.7420000000,-3.0740000000,-2.2444934181,0.0453785606,-7.8836522313,-0.0123918377,1.2906709818,2.4975661596,-450,-436,0
-1.4380000000,0.1100000000,-3.4650000000,-2.0036379813,1.9442967867,-7.6078902094,0.0647517152,1.2690288991,2.4836035256,-415,-459,-10
-1.4490000000,0.9870000000,-3.6370000000,-1.7784905078,3.5744343081,-6.9254664719,0.1425933999,1.2505284091,2.4870941841,-391,-487,-27
-1.4260000000,1.8100000000,-3.5610000000,-1.5690509975,4.8712139423,-6.0109139439,0.2178170906,1.2372639067,2.5062928059,-376,-496,-40
-1.3860000000,2.5350000000,-3.2670000000,-1.3997540601,5.7927477874,-4.8659779546,0.2872811949,1.2306316556,2.5394540617,-360,-511,-63
-1.3270000000,3.1440000000,-2.8260000000,-1.2932889757,6.4105943426,-3.5674529911,0.3480186528,1.2315043202,2.5848326222,-344,-521,-81
-1.2500000000,3.6270000000,-2.3010000000,-1.3072516097,6.5903632555,-2.1432643214,0.3970624048,1.2390092360,2.6406831583,-338,-527,-98
-1.1720000000,3.9680000000,-1.7350000000,-1.3805554383,6.5816366093,-0.6387905062,0.4321435228,1.2510520078,2.7035150113,-334,-532,-118
-1.0870000000,4.2220000000,-0.6850000000,-1.3753194506,6.6409778038,0.8761552845,0.4518657433,1.2669345040,2.7733281814,-335,-528,-137
-1.0870000000,4.2220000000,-0.6850000000,-1.1117747335,6.7334802542,2.1956241990,0.4569271982,1.2875293892,2.8501226685,-346,-524,-157
-1.0970000000,4.1350000000,-0.2020000000,-0.6056292504,6.7456975590,3.3580134808,0.4487241507,1.3137093280,2.9304078141,-357,-517,-176
-1.1680000000,3.8980000000,0.3110000000,0.0628318531,6.6531951086,4.3615778007,0.4276056667,1.3454743204,3.0124382889,-374,-510,-192
-1.4160000000,3.0660000000,1.5600000000,0.8325220532,6.2744586609,5.0195669287,0.3951425427,1.3816026359,3.0927234345,-394,-498,-208
-1.5390000000,2.5780000000,2.2970000000,1.4503686084,5.3354715233,5.2848569750,0.3544763711,1.4193017477,-3.1189033733,-409,-485,-216
-1.6130000000,2.1170000000,3.0480000000,1.6807520697,3.8903389027,5.3389621819,0.3080506130,1.4538592669,-3.0613075080,-427,-472,-224
-1.6380000000,1.7090000000,3.7240000000,1.3596114873,2.0891591146,5.3895767302,0.2581341964,1.4803882715,-3.0229102645,-443,-458,-225
-1.6290000000,1.3490000000,4.2250000000,0.5044001538,0.0733038286,5.4209926567,0.2052507200,1.4943509056,-3.0072023012,-463,-443,-225
-1.6190000000,1.0170000000,4.4620000000,-0.7487462491,-1.9198621772,5.3983033764,0.1507964474,1.4934782409,-3.0106929597,-484,-421,-221
-1.6280000000,0.6930000000,4.3930000000,-2.0891591146,-3.6948620265,5.3215088893,0.0949459113,1.4770721460,-3.0333822400,-500,-411,-214
-1.6680000000,0.3570000000,4.0420000000,-3.1014500808,-5.1818825492,5.1766465614,0.0376991118,1.4486232792,-3.0717794835,-518,-387,-205
-1.7210000000,-0.0080000000,3.4840000000,-3.7070793312,-6.4228116473,5.0195669287,-0.0202458193,1.4144148258,-3.1223940318,-536,-370,-186
-1.7610000000,-0.3880000000,2.7960000000,-3.6826447217,-7.1069807141,4.2812926551,-0.0787143493,1.3798573066,3.1014500808,-548,-349,-166
-1.8050000000,-0.7880000000,2.0520000000,-3.1031954100,-7.4124133332,3.1293753488,-0.1303760951,1.3521065715,3.0368728985,-567,-331,-140
-1.8090000000,-1.1820000000,1.3240000000,-2.3335052099,-7.4717545278,1.9233528357,-0.1724385301,1.3348278119,2.9705503869,-569,-325,-119
-1.7340000000,-1.5340000000,0.6370000000,-1.6702800942,-7.1890111890,0.5113814708,-0.2026327262,1.3276719620,2.9007372168,-569,-321,-91
-1.6140000000,-1.8200000000,-0.0040000000,-1.1850785621,-6.6863563644,-1.1501719771,-0.2172934919,1.3280210278,2.8309240467,-563,-324,-65
-1.4930000000,-1.9980000000,-0.6090000000,-0.8482300165,-6.0161499316,-2.9077185338,-0.2136283004,1.3325588839,2.7628562059,-552,-335,-43
-1.3850000000,-2.0180000000,-1.1650000000,-0.7539822369,-5.2534410485,-4.4942228239,-0.1914626189,1.3377948717,2.6982790236,-537,-353,-16
-1.2960000000,-1.8530000000,-1.6670000000,-0.9407324668,-4.4313909708,-5.7927477874,-0.1530653754,1.3400637997,2.6371924998,-513,-374,-2
-1.2530000000,-1.5220000000,-2.1200000000,-1.3997540601,-3.4592425775,-6.7875854610,-0.1014036295,1.3357004766,2.5830872930,-492,-393,2
-1.2650000000,-1.0430000000,-2.5210000000,-2.1223203704,-2.3265238929,-7.5747289537,-0.0390953752,1.3220869084,2.5377087324,-461,-422,2
-1.3260000000,-0.3960000000,-2.8720000000,-2.8221974005,-0.8220500777,-8.0983277293,0.0319395253,1.2978268318,2.5010568181,-433,-448,1
-1.3860000000,0.4030000000,-3.1230000000,-3.3231068958,0.8901179185,-8.1227623388,0.1099557429,1.2655382406,2.4783675378,-400,-481,-18
-1.3840000000,1.2820000000,-3.2050000000,-3.5971235884,2.5220007691,-7.5537850026,0.1900663555,1.2295844580,2.4678955623,-375,-500,-32
-1.3510000000,2.1530000000,-3.1080000000,-3.5430183815,3.8152897449,-6.5153140977,0.2675589743,1.1946778730,2.4731315501,-350,-518,-57
-1.3470000000,2.9480000000,-2.8610000000,-3.1799898971,4.7176249681,-5.1836278784,0.3385938749,1.1660544733,2.4905848426,-328,-531,-80
-1.3580000000,3.6410000000,-2.4830000000,-2.7035150113,5.1120693791,-3.6372661612,0.3996803987,1.1470303844,2.5185101106,-313,-537,-103
-1.3620000000,4.2110000000,-2.0040000000,-2.4068090385,5.0946160866,-1.8622663119,0.4469788214,1.1372565406,2.5603980127,-297,-546,-122
-1.3170000000,4.6160000000,-1.5320000000,-2.0909044439,5.2342424267,0.2356194490,0.4771730175,1.1358602772,2.6075219025,-297,-546,-138
-1.2610000000,4.8130000000,-1.1040000000,-1.6231562044,5.3511794866,2.2863813201,0.4883431247,1.1447614564,2.6686084263,-307,-545,-153
-1.2370000000,4.7570000000,-0.7080000000,-0.9232791743,5.6880280322,3.8187804034,0.4829326040,1.1644836769,2.7384215964,-319,-540,-173
-1.2810000000,4.4500000000,-0.3130000000,-0.0750491578,6.1051617235,4.9253191491,0.4653047786,1.1953760047,2.8187067420,-338,-529,-186
-1.3680000000,3.9460000000,0.1500000000,0.7086036763,6.3791784160,5.7456238976,0.4372049776,1.2356931104,2.9042278753,-365,-514,-199
-1.4670000000,3.3250000000,0.7200000000,1.1868238914,6.4437555984,6.3198372215,0.3996803987,1.2807226051,2.9914943379,-381,-505,-209
-1.5590000000,2.6570000000,1.3980000000,1.2880529880,6.1243603452,6.5746552923,0.3543018382,1.3243558364,3.0752701420,-405,-488,-217
-1.6120000000,2.0060000000,2.1600000000,1.0297442587,5.1207960254,6.4873888297,0.3033382240,1.3604841519,-3.1328660073,-426,-470,-230
-1.6210000000,1.4320000000,2.9460000000,0.3630284844,3.5133477843,6.2220987834,0.2497566160,1.3840460968,-3.0735248128,-440,-455,-238
-1.6130000000,0.9720000000,3.6630000000,-0.5654866776,1.5760323146,5.8346356894,0.1951278104,1.3920746114,-3.0368728985,-468,-429,-251
-1.6140000000,0.6140000000,4.2320000000,-1.4695672302,-0.5410520681,5.3546701451,0.1408480706,1.3850932944,-3.0194196060,-483,-417,-250
-1.6310000000,0.3270000000,4.5670000000,-2.1938788698,-2.5656340004,4.7856928090,0.0881391272,1.3665928043,-3.0246555937,-503,-392,-255
-1.6620000000,0.0940000000,4.6060000000,-2.7349309379,-4.2044981681,4.2638393626,0.0366519143,1.3405873985,-3.0473448740,-518,-377,-247
-1.6890000000,-0.0830000000,4.3310000000,-3.0525808617,-5.3756140961,3.9444441095,-0.0144862328,1.3114403999,-3.0839967883,-538,-359,-232
-1.7150000000,-0.2200000000,3.8060000000,-3.0211649352,-6.0702551384,3.7384952578,-0.0671951762,1.2822934014,-3.1276300196,-553,-339,-212
-1.7170000000,-0.3430000000,3.1460000000,-2.3247785637,-6.5100781099,3.2742376767,-0.1193805208,1.2594295882,3.1031954100,-563,-329,-192
-1.7050000000,-0.5030000000,2.4730000000,-1.2705996955,-6.8888145576,2.7541295596,-0.1692969374,1.2487830798,3.0490902032,-573,-320,-164
-1.6720000000,-0.7150000000,1.8490000000,-0.1588249619,-6.9795716787,2.0001473228,-0.2143264321,1.2524482712,2.9897490087,-580,-310,-130
-1.5880000000,-0.9600000000,1.2900000000,0.6510078110,-6.9638637155,0.9389871376,-0.2502802147,1.2695524979,2.9269171556,-580,-302,-100
-1.4780000000,-1.2180000000,0.7710000000,0.9040805525,-6.8486719848,-0.3839724354,-0.2733185609,1.2952088379,2.8588493148,-577,-299,-68
-1.3670000000,-1.4470000000,0.2640000000,0.6265732015,-6.6095618773,-1.8797196044,-0.2808234766,1.3227850401,2.7890361447,-571,-303,-44
-1.2480000000,-1.6040000000,-0.2650000000,-0.0244346095,-6.1051617235,-3.4156093462,-0.2705260341,1.3458233862,2.7174776454,-555,-314,-15
-1.1730000000,-1.6220000000,-0.8130000000,-0.9669124056,-5.5972709111,-4.6966810171,-0.2441715624,1.3589133556,2.6494098045,-539,-333,1
-1.1350000000,-1.4570000000,-1.3500000000,-2.0577431881,-4.9375364539,-5.6409041424,-0.2049016542,1.3589133556,2.5848326222,-515,-351,19
-1.1280000000,-1.0880000000,-1.8870000000,-3.1101767271,-3.9461894388,-6.1453042963,-0.1572541656,1.3439035240,2.5272367569,-488,-385,28
-1.1600000000,-0.5350000000,-2.4300000000,-3.8938295612,-2.3020892834,-6.5292767317,-0.1036725576,1.3152801243,2.4801128671,-466,-410,21
-1.1810000000,0.9590000000,-3.3830000000,-4.0875611082,-0.1117010721,-6.6008352310,-0.0436332313,1.2774064795,2.4504422698,-442,-435,11
-1.0870000000,1.7730000000,-3.5550000000,-3.7262779530,1.9198621772,-6.0789817847,0.0195476876,1.2379620384,2.4382249650,-422,-461,-5
-0.9310000000,2.5260000000,-3.4500000000,-2.6843163896,3.5116024550,-5.0963614158,0.0820304748,1.2053243814,2.4434609528,-407,-478,-23
-0.8120000000,3.1310000000,-3.1280000000,-1.3578661581,4.5553093477,-3.7053340020,0.1385791426,1.1868238914,2.4644049038,-390,-491,-44
